RECORDING_SESSION_LABEL,CURRENT_SAC_AMPLITUDE,CURRENT_SAC_AVG_VELOCITY,CURRENT_SAC_CONTAINS_BLINK,CURRENT_SAC_DIRECTION,CURRENT_SAC_DURATION,CURRENT_SAC_ANGLE,CURRENT_SAC_END_TIME,CURRENT_SAC_END_X,CURRENT_SAC_END_Y,CURRENT_SAC_INDEX,CURRENT_SAC_PEAK_VELOCITY,CURRENT_SAC_START_TIME,CURRENT_SAC_START_X,CURRENT_SAC_START_Y,EYE_USED,PREVIOUS_FIX_BLINK_AROUND,block_number,block_trial_number,emcount,fix_to_stim,high_location,looked_distractor,low_location,not_fixated,points_received,ques_trial,response_key,response_time,sac_latency,target_correct,target_position,too_late,total_points,trial_number
SR01TR,6.79,150.98,FALSE,UP,45,134.91,961,624.2,303.9,1,244.44,917,857.3,538,RIGHT,NONE,0,0,1,483,north_west,0,south_east,0,0,0,0,345,301,1,north_west,0,0,0
SR01TR,5.3,120.55,FALSE,LEFT,44,-142.45,1013,646.5,672.6,1,305.72,970,851.3,514.7,RIGHT,NONE,0,1,1,598,north_west,0,south_east,0,0,0,0,280,237,1,south_west,0,0,1
SR01TR,6.64,158.14,FALSE,RIGHT,42,43.96,780,1069.5,313.6,1,344.45,739,836.9,537.9,RIGHT,NONE,0,2,1,363,north_west,0,south_east,0,0,0,0,284,244,1,north_east,0,0,2
SR01TR,6.94,157.71,FALSE,RIGHT,44,44.72,949,1086.8,272.9,1,347.35,906,846.7,510.7,RIGHT,NONE,0,3,1,584,north_west,0,south_east,0,0,0,0,232,189,1,north_east,0,0,3
SR01TR,6.77,157.4,FALSE,LEFT,43,136.64,762,602.6,297.8,1,262.31,720,842,524.1,RIGHT,NONE,0,4,1,293,north_west,0,south_east,0,0,0,0,348,306,1,north_west,0,0,4
SR01TR,5.89,150.9,FALSE,RIGHT,39,-39.93,813,1056,708.7,1,321.88,775,836,523.8,RIGHT,NONE,0,5,1,400,north_west,0,south_east,0,0,0,0,280,242,1,south_east,0,0,5
SR01TR,6.2,144.08,FALSE,UP,43,134.28,785,642.8,297,1,253.18,743,853,512.8,RIGHT,NONE,0,6,1,367,north_west,0,south_east,0,0,0,0,297,255,1,north_west,0,0,6
SR01TR,5.71,129.88,FALSE,RIGHT,44,-40.45,1167,1062,714.6,1,303.45,1124,850,533.1,RIGHT,NONE,0,7,1,788,north_west,0,south_east,0,0,0,0,244,201,1,south_east,0,0,7
SR01TR,5.28,120.08,FALSE,RIGHT,44,-31.28,861,1067.8,645.5,1,261.12,818,847.9,511.5,RIGHT,NONE,0,8,1,455,north_west,0,south_east,0,0,0,0,283,240,1,south_east,0,0,8
SR01TR,0.94,52.43,FALSE,DOWN,18,-99.09,1010,1054.5,690.6,2,63.62,993,1061.8,644.8,RIGHT,NONE,0,8,1,455,north_west,0,south_east,0,0,0,0,283,240,1,south_east,0,0,8
SR01TR,6.31,140.16,FALSE,LEFT,45,135.62,1022,648.7,272.8,1,254.14,978,867.8,487.4,RIGHT,NONE,0,9,1,615,north_west,0,south_east,0,0,0,0,274,229,1,north_west,0,0,9
SR01TR,5.42,120.46,FALSE,RIGHT,45,-39.91,933,1032.6,715.8,1,239.19,889,829.9,545.4,RIGHT,NONE,0,10,1,548,north_west,0,south_east,0,0,0,0,250,206,1,south_east,0,0,10
SR01TR,0.22,36.77,FALSE,.,6,145.33,423,827.4,526,1,29.41,418,836.2,532.1,RIGHT,NONE,0,11,1,525,north_west,0,south_east,0,0,0,0,256,217,1,north_west,0,0,11
SR01TR,6.34,158.44,FALSE,UP,40,132.38,916,618.2,285.9,2,275.06,877,826,513.9,RIGHT,NONE,0,11,1,525,north_west,0,south_east,0,0,0,0,256,217,1,north_west,0,0,11
SR01TR,6.1,135.63,FALSE,LEFT,45,-136.21,1006,618.2,752.9,1,296.63,962,833.2,545.5,RIGHT,NONE,0,12,1,605,north_west,0,south_east,0,0,0,0,271,226,1,south_west,0,0,12
SR01TR,5.7,105.62,FALSE,LEFT,54,-139.43,916,646,681,1,301.89,863,857,499.8,RIGHT,NONE,0,13,1,504,north_west,0,south_east,0,0,0,0,278,225,1,south_west,0,0,13
SR01TR,1.46,104.49,FALSE,RIGHT,14,14.02,1467,698.6,667.8,2,82.97,1454,629.2,685.2,RIGHT,NONE,0,13,1,504,north_west,0,south_east,0,0,0,0,278,225,1,south_west,0,0,13
SR01TR,5.31,110.64,FALSE,LEFT,48,-139.75,1036,641.6,705.1,1,300.23,989,839.2,537.3,RIGHT,NONE,0,14,1,647,north_west,0,south_east,0,0,0,0,254,207,1,south_west,0,0,14
SR01TR,6.52,144.8,FALSE,RIGHT,45,42.24,998,1084.1,308.4,1,313.81,954,849.4,521.7,RIGHT,NONE,0,15,1,608,north_west,0,south_east,0,0,0,0,257,213,1,north_east,0,0,15
SR01TR,7.01,162.91,FALSE,RIGHT,43,44.57,666,1058.6,302.9,1,315.69,624,815.8,542.3,RIGHT,NONE,0,16,1,267,north_west,0,south_east,0,0,0,0,268,226,1,north_east,0,0,16
SR01TR,6.09,138.45,FALSE,RIGHT,44,42.47,474,1057.5,331.4,1,305.42,431,839.1,531.5,RIGHT,NONE,0,17,1,608,north_west,0,south_east,1,0,0,0,53,2,0,south_east,1,0,17
SR01TR,5.4,103.93,FALSE,LEFT,52,-140.68,794,858,522.8,2,331.97,743,1061.2,356.2,RIGHT,NONE,0,17,1,608,north_west,0,south_east,1,0,0,0,53,2,0,south_east,1,0,17
SR01TR,6.43,112.87,FALSE,RIGHT,57,-35.71,1080,1107.1,732.5,3,428.07,1024,851.9,548.3,RIGHT,NONE,0,17,1,608,north_west,0,south_east,1,0,0,0,53,2,0,south_east,1,0,17
SR01TR,6.34,144.2,FALSE,RIGHT,44,39.73,1010,1083.2,344.1,1,302.89,967,845.8,541.6,RIGHT,NONE,0,18,1,633,north_west,0,south_east,0,0,0,0,244,201,1,north_east,0,0,18
SR01TR,5.98,124.52,FALSE,LEFT,48,-136.34,1048,633.1,737,1,294.22,1001,843.9,534.8,RIGHT,NONE,0,19,1,632,north_west,0,south_east,0,0,0,0,282,235,1,south_west,0,0,19
SR01TR,6.36,147.99,FALSE,RIGHT,43,44.03,1077,1092.8,298.8,1,312.05,1035,870,514.2,RIGHT,NONE,0,20,1,709,north_west,0,south_east,0,0,0,0,234,192,1,north_east,0,0,20
SR01TR,6.73,143.15,FALSE,UP,47,48.54,918,1038.8,284.9,1,293.51,872,822.3,530.2,RIGHT,NONE,0,21,1,538,north_west,0,south_east,0,0,0,0,250,204,1,north_east,0,0,21
SR01TR,5.01,102.2,FALSE,RIGHT,49,-40.7,1204,1032.9,654.4,1,301.81,1156,848,494.9,RIGHT,NONE,0,22,1,795,north_west,0,south_east,0,0,0,0,275,227,1,south_east,0,0,22
SR01TR,5.2,113.06,FALSE,RIGHT,46,-37.37,766,1034.5,683,1,260.66,721,833.2,528.8,RIGHT,NONE,0,23,1,345,north_west,0,south_east,0,0,0,0,287,242,1,south_east,0,0,23
SR01TR,6.74,149.67,FALSE,LEFT,45,138.34,1024,601.2,316.3,1,278.27,980,846,534.1,RIGHT,NONE,0,24,1,615,north_west,0,south_east,0,0,0,0,273,229,1,north_west,0,0,24
SR01TR,6.6,160.86,FALSE,LEFT,41,138.17,730,602.8,326.5,1,276.7,690,841.9,540.7,RIGHT,NONE,0,25,1,295,north_west,0,south_east,0,0,0,0,300,259,1,north_west,0,0,25
SR01TR,6.51,144.67,FALSE,LEFT,45,135.61,1077,615.6,325.1,1,256.56,1033,841.9,546.9,RIGHT,NONE,0,26,1,691,north_west,0,south_east,0,0,0,0,253,209,1,north_west,0,0,26
SR01TR,5.77,106.93,FALSE,LEFT,54,-135.05,993,648.8,739.3,1,320.65,940,848,539.4,RIGHT,NONE,0,27,1,573,north_west,0,south_east,0,0,0,0,298,245,1,south_west,0,0,27
SR01TR,6.48,150.64,FALSE,UP,43,134.06,909,620.6,315,1,269.68,867,839.5,541.7,RIGHT,NONE,0,28,1,513,north_west,0,south_east,0,0,0,0,263,222,1,north_west,0,0,28
SR01TR,6.45,121.61,FALSE,RIGHT,53,-39.15,984,1090.6,715.8,1,344.53,932,846.7,516.6,RIGHT,NONE,0,29,1,546,north_west,0,south_east,0,0,0,0,303,251,1,south_east,0,0,29
SR01TR,6.53,148.47,FALSE,DOWN,44,-133.97,1048,599.7,790.8,1,266.58,1005,821.5,559.5,RIGHT,NONE,0,30,1,652,north_west,0,south_east,0,0,0,0,262,219,1,south_west,0,0,30
SR01TR,0.45,29.71,FALSE,.,15,121.25,1296,580.8,766.3,2,39.55,1282,592.2,785.2,RIGHT,NONE,0,30,1,652,north_west,0,south_east,0,0,0,0,262,219,1,south_west,0,0,30
SR01TR,5.98,130.02,FALSE,UP,46,47.25,888,1056.8,288.9,1,307.66,843,859.3,502.8,RIGHT,NONE,0,31,1,476,north_west,0,south_east,0,0,0,0,277,232,1,north_east,0,0,31
SR01TR,5.86,146.59,FALSE,RIGHT,40,-37.2,817,1049.8,723.8,1,274.41,778,822.1,550.1,RIGHT,NONE,0,32,1,419,north_west,0,south_east,0,0,0,0,263,224,1,south_east,0,0,32
SR01TR,6.43,126.01,FALSE,LEFT,51,140.4,1013,596.8,307.1,1,189.03,963,837.7,506.6,RIGHT,NONE,0,33,1,628,north_west,0,south_east,0,0,0,0,252,202,1,north_west,0,0,33
SR01TR,6.14,118.16,FALSE,LEFT,52,-138.86,948,619.9,729,1,284.03,897,845.7,530.9,RIGHT,NONE,0,34,1,538,north_west,0,south_east,0,0,0,0,280,229,1,south_west,0,0,34
SR01TR,5.72,124.42,FALSE,LEFT,46,-139.67,1025,622,710,1,286.97,980,834.7,528.7,RIGHT,NONE,0,35,1,609,north_west,0,south_east,0,0,0,0,283,238,1,south_west,0,0,35
SR01TR,0.24,40.57,FALSE,.,6,178.06,439,831.6,525.1,1,31.25,434,843.4,525.5,RIGHT,NONE,0,36,1,213,north_west,0,south_east,0,0,0,0,345,87,1,south_west,0,0,36
SR01TR,6.11,145.45,FALSE,LEFT,42,-138.08,692,616.9,725.3,2,278.89,651,838.7,525.5,RIGHT,NONE,0,36,1,213,north_west,0,south_east,0,0,0,0,345,87,1,south_west,0,0,36
SR01TR,5.5,119.54,FALSE,LEFT,46,-139.72,972,654.7,714.5,1,253.87,927,859,540.3,RIGHT,NONE,0,37,1,554,north_west,0,south_east,0,0,0,0,282,237,1,south_west,0,0,37
SR01TR,6.51,147.85,FALSE,RIGHT,44,44.46,971,1084.4,288.3,1,329.61,928,858.5,510.2,RIGHT,NONE,0,38,1,577,north_west,0,south_east,0,0,0,0,258,215,1,north_east,0,0,38
SR01TR,6.78,154.12,FALSE,UP,44,134.56,822,613,307.3,1,306.53,779,844.5,542.6,RIGHT,NONE,0,39,1,399,north_west,0,south_east,0,0,0,0,291,247,1,north_west,0,0,39
SR01TR,5.45,118.56,FALSE,RIGHT,46,-43.27,959,1022.8,712.8,1,345.02,914,829.4,530,RIGHT,NONE,0,40,1,591,north_west,0,south_east,0,0,0,0,236,192,1,south_east,0,0,40
SR01TR,6.36,127.23,FALSE,DOWN,50,-133.88,765,617.5,754.7,1,337.54,716,832.7,529.8,RIGHT,NONE,0,41,1,314,north_west,0,south_east,0,0,0,0,315,266,1,south_west,0,0,41
SR01TR,1.34,70.61,FALSE,UP,19,58.32,886,631.7,707.7,2,90.51,868,597.1,764.1,RIGHT,NONE,0,41,1,314,north_west,0,south_east,0,0,0,0,315,266,1,south_west,0,0,41
SR01TR,5.57,159.15,FALSE,RIGHT,35,-36.67,775,1065.9,707.3,1,323.32,741,848.1,544.3,RIGHT,NONE,0,42,1,394,north_west,0,south_east,0,0,0,0,248,214,1,south_east,0,0,42
SR01TR,5.8,141.41,FALSE,RIGHT,41,-40.23,1105,1070.3,692.4,1,280.22,1065,854.5,509.3,RIGHT,NONE,0,43,1,749,north_west,0,south_east,0,0,0,0,222,182,1,south_east,0,0,43
SR01TR,6.04,125.82,FALSE,RIGHT,48,-39.54,1135,1077.5,695,1,318.99,1088,850.2,507,RIGHT,NONE,0,44,1,741,north_west,0,south_east,0,0,0,0,258,211,1,south_east,0,0,44
SR01TR,0.48,48.22,FALSE,.,10,164.18,418,819.8,539.3,1,43.98,409,842.3,545.7,RIGHT,NONE,0,45,1,239,north_west,0,south_east,0,0,0,0,305,38,1,north_east,0,0,45
SR01TR,6.56,145.86,FALSE,RIGHT,45,41.41,676,1069.6,320.2,2,289.54,632,830.1,531.4,RIGHT,NONE,0,45,1,239,north_west,0,south_east,0,0,0,0,305,38,1,north_east,0,0,45
SR01TR,4.07,79.71,FALSE,LEFT,51,-142.5,1212,916.9,450.8,3,148.09,1162,1073.8,330.4,RIGHT,NONE,0,45,1,239,north_west,0,south_east,0,0,0,0,305,38,1,north_east,0,0,45
SR01TR,6.18,147.09,FALSE,RIGHT,42,41.87,1172,1064.6,319.1,1,288.6,1131,840.8,519.7,RIGHT,NONE,0,46,1,798,north_west,0,south_east,0,0,0,0,241,200,1,north_east,0,0,46
SR01TR,6.13,136.24,FALSE,RIGHT,45,43.76,900,1042.9,322,1,265.82,856,827.7,528.3,RIGHT,NONE,0,47,1,522,north_west,0,south_east,0,0,0,0,246,202,1,north_east,0,0,47
SR01TR,5.11,98.35,FALSE,RIGHT,52,-35.37,990,1050.6,657.9,1,232.46,939,847.5,513.3,RIGHT,NONE,0,48,1,593,north_west,0,south_east,0,0,0,0,263,211,1,south_east,0,0,48
SR01TR,1.17,50.8,FALSE,DOWN,23,-78.82,1217,1069.2,710,2,77.11,1195,1058.1,653.6,RIGHT,NONE,0,48,1,593,north_west,0,south_east,0,0,0,0,263,211,1,south_east,0,0,48
SR01TR,6.59,156.95,FALSE,LEFT,42,139.4,732,602.1,323.6,1,281.19,691,845.6,532.3,RIGHT,NONE,0,49,1,263,north_west,0,south_east,0,0,0,0,335,294,1,north_west,0,0,49
SR01TR,3.53,103.92,FALSE,RIGHT,34,30.44,937,1005,435.3,1,179.49,904,857.1,522.3,RIGHT,NONE,0,50,2,583,north_west,0,south_east,0,0,0,0,313,261,0,south_west,1,0,50
SR01TR,10.09,190.35,FALSE,LEFT,53,-141.67,1031,606.9,747.6,2,331.14,979,993.5,440.7,RIGHT,NONE,0,50,2,583,north_west,0,south_east,0,0,0,0,313,261,0,south_west,1,0,50
SR01TR,0.95,47.35,FALSE,UP,20,52.47,1345,646.4,718.5,3,70.63,1326,618.1,755.6,RIGHT,NONE,0,50,2,583,north_west,0,south_east,0,0,0,0,313,261,0,south_west,1,0,50
SR01TR,5.58,121.36,FALSE,LEFT,46,-136.93,736,628.3,743.1,1,304.58,691,827.3,556.1,RIGHT,NONE,0,51,1,215,north_west,0,south_east,0,0,0,0,387,342,1,south_west,0,0,51
SR01TR,6.37,144.72,FALSE,LEFT,44,136.16,893,627.6,303,1,254.52,850,850.8,517.6,RIGHT,NONE,0,52,1,478,north_west,0,south_east,0,0,0,0,281,238,1,north_west,0,0,52
SR01TR,5.99,136.05,FALSE,UP,44,46.03,762,1045.8,308.5,1,272.29,719,843.8,518.1,RIGHT,NONE,0,53,1,360,north_west,0,south_east,0,0,0,0,268,225,1,north_east,0,0,53
SR01TR,5.9,117.96,FALSE,LEFT,50,-136.92,1172,658.2,729.8,1,278.01,1123,868.2,532.6,RIGHT,NONE,0,54,1,769,north_west,0,south_east,0,0,0,0,270,221,1,south_west,0,0,54
SR01TR,5.87,133.48,FALSE,LEFT,44,-139.74,1060,637,696.6,1,276.14,1017,855.5,511,RIGHT,NONE,0,55,1,637,north_west,0,south_east,0,0,0,0,288,245,1,south_west,0,0,55
SR01TR,6.18,147.26,FALSE,RIGHT,42,40.82,1125,1067.3,318.9,1,273.29,1084,839.6,515.6,RIGHT,NONE,0,56,1,733,north_west,0,south_east,0,0,0,0,259,218,1,north_east,0,0,56
SR01TR,6.31,131.56,FALSE,RIGHT,48,43.32,804,1063.7,333.7,1,244.15,757,840.2,544.7,RIGHT,NONE,0,57,1,387,north_west,0,south_east,0,0,0,0,283,236,1,north_east,0,0,57
SR01TR,5.84,121.64,FALSE,LEFT,48,-136.59,864,599.1,742.4,1,228.06,817,806.1,545.6,RIGHT,NONE,0,58,1,426,north_west,0,south_east,0,0,0,0,304,256,1,south_west,0,0,58
SR01TR,5.38,103.37,FALSE,RIGHT,52,-36.15,691,1062.7,672.1,1,280.97,640,851.1,517.2,RIGHT,NONE,0,59,1,204,north_west,0,south_east,0,0,0,0,355,304,1,south_east,0,0,59
SR01TR,6.41,136.32,FALSE,UP,47,45.2,648,1045.6,313.4,1,224.79,602,826.2,534.6,RIGHT,NONE,0,60,1,204,north_west,0,south_east,0,0,0,0,312,266,1,north_east,0,0,60
SR01TR,0.41,22.5,FALSE,.,18,136.71,431,832.5,503.1,1,42.07,414,846.8,516.6,RIGHT,NONE,0,61,1,331,north_west,0,south_east,0,0,0,0,305,263,1,north_west,0,0,61
SR01TR,6.31,146.66,FALSE,UP,43,134.88,769,624.9,288.3,2,272.24,727,841.4,505.7,RIGHT,NONE,0,61,1,331,north_west,0,south_east,0,0,0,0,305,263,1,north_west,0,0,61
SR01TR,5.68,120.95,FALSE,RIGHT,47,-41.46,744,1050.4,734.3,1,279.87,698,842.5,549.7,RIGHT,NONE,0,62,1,307,north_west,0,south_east,0,0,0,0,306,260,1,south_east,0,0,62
SR01TR,5.75,136.88,FALSE,RIGHT,42,-39.71,1140,1063.9,675,1,273.05,1099,848.3,495.4,RIGHT,NONE,0,63,1,732,north_west,0,south_east,0,0,0,0,273,232,1,south_east,0,0,63
SR01TR,5.39,103.71,FALSE,RIGHT,52,-39.18,1199,1064.5,681.1,1,320.94,1148,860.7,514.5,RIGHT,NONE,0,64,1,796,north_west,0,south_east,0,0,0,0,269,218,1,south_east,0,0,64
SR01TR,5.61,127.54,FALSE,RIGHT,44,-41.56,842,1049.8,734.3,1,269.95,799,845.1,551.7,RIGHT,NONE,0,65,1,455,north_west,0,south_east,0,0,0,0,266,222,1,south_east,0,0,65
SR01TR,5.36,130.74,FALSE,LEFT,41,147.85,1334,838.7,612.5,2,187.44,1294,1060.4,752.7,RIGHT,NONE,0,65,1,455,north_west,0,south_east,0,0,0,0,266,222,1,south_east,0,0,65
SR01TR,0.33,46.61,FALSE,.,7,176.75,431,828.2,518.8,1,36.62,425,844,519.7,RIGHT,NONE,0,66,1,697,north_west,0,south_east,0,0,0,0,274,227,1,south_east,0,0,66
SR01TR,6.74,140.34,FALSE,RIGHT,48,-42.94,1103,1082.1,744.4,2,294.74,1056,841.2,519.3,RIGHT,NONE,0,66,1,697,north_west,0,south_east,0,0,0,0,274,227,1,south_east,0,0,66
SR01TR,0.61,47.29,FALSE,UP,13,108.92,1273,1074.7,709.2,3,49.53,1261,1084.5,737.9,RIGHT,NONE,0,66,1,697,north_west,0,south_east,0,0,0,0,274,227,1,south_east,0,0,66
SR01TR,6.22,144.58,FALSE,LEFT,43,-139.95,907,629.7,710.2,1,287.68,865,861.7,514.4,RIGHT,NONE,0,67,1,465,north_west,0,south_east,0,0,0,0,308,266,1,south_west,0,0,67
SR01TR,6.45,146.57,FALSE,RIGHT,44,44.91,865,1063.3,298.3,1,296.92,822,841.1,519.8,RIGHT,NONE,0,68,1,453,north_west,0,south_east,0,0,0,0,277,234,1,north_east,0,0,68
SR01TR,6.39,135.98,FALSE,DOWN,47,-134.37,822,611.7,759.3,1,265.18,776,829.8,535.2,RIGHT,NONE,0,69,1,370,north_west,0,south_east,0,0,0,0,318,272,1,south_west,0,0,69
SR01TR,6.43,142.95,FALSE,LEFT,45,-138.64,945,614.6,741.8,1,274.54,901,850.2,533.5,RIGHT,NONE,0,70,1,466,north_west,0,south_east,0,0,0,0,344,300,1,south_west,0,0,70
SR01TR,6.86,149.14,FALSE,UP,46,47.5,894,1085.7,285.1,1,310.65,849,860.2,531.4,RIGHT,NONE,0,71,1,510,north_west,0,south_east,0,0,0,0,250,205,1,north_east,0,0,71
SR01TR,5.98,170.88,FALSE,RIGHT,35,39.1,876,1067.2,333.3,1,294.37,842,841.4,516.8,RIGHT,NONE,0,72,1,485,north_west,0,south_east,0,0,0,0,256,222,1,north_east,0,0,72
SR01TR,5.95,126.55,FALSE,LEFT,47,-143.13,1141,602.9,711.7,1,279.8,1095,835.1,537,RIGHT,NONE,0,73,1,727,north_west,0,south_east,0,0,0,0,280,234,1,south_west,0,0,73
SR01TR,6.54,155.79,FALSE,UP,42,134.15,697,623.7,310.5,1,267.78,656,845.2,538.9,RIGHT,NONE,0,74,1,240,north_west,0,south_east,0,0,0,0,323,282,1,north_west,0,0,74
SR01TR,0.51,51.39,FALSE,LEFT,10,168.22,389,813.2,528,1,45.16,380,837.6,533.1,RIGHT,NONE,0,75,1,667,north_west,0,south_east,0,0,0,0,328,277,1,south_east,0,0,75
SR01TR,5.8,113.69,FALSE,RIGHT,51,-37.22,1129,1055,696.4,2,365.92,1079,829.9,524.9,RIGHT,NONE,0,75,1,667,north_west,0,south_east,0,0,0,0,328,277,1,south_east,0,0,75
SR01TR,5.98,135.85,FALSE,RIGHT,44,-40.99,729,1055.2,731.5,1,288.88,686,835,539.4,RIGHT,NONE,0,76,1,228,north_west,0,south_east,0,0,0,0,381,338,1,south_east,0,0,76
SR01TR,6.56,159.98,FALSE,LEFT,41,139.79,802,594.7,330.8,1,296.64,762,838.4,536.8,RIGHT,NONE,0,77,1,379,north_west,0,south_east,0,0,0,0,290,250,1,north_west,0,0,77
SR01TR,6.21,147.94,FALSE,LEFT,42,137.38,1036,634.5,329.2,1,249.74,995,856.7,533.9,RIGHT,NONE,0,78,1,633,north_west,0,south_east,0,0,0,0,267,226,1,north_west,0,0,78
SR01TR,6.48,143.96,FALSE,RIGHT,45,40.46,682,1076.7,326,1,280.96,638,836.9,530.5,RIGHT,NONE,0,79,1,279,north_west,0,south_east,0,0,0,0,281,237,1,north_east,0,0,79
SR01TR,6.42,125.85,FALSE,RIGHT,51,-41.65,658,1088.2,730.2,1,326.46,608,853.9,521.2,RIGHT,NONE,0,80,1,226,north_west,0,south_east,0,0,0,0,299,249,1,south_east,0,0,80
SR01TR,0.72,42.36,FALSE,UP,17,109.99,861,1092.6,701.1,2,52.11,845,1104.7,734.5,RIGHT,NONE,0,80,1,226,north_west,0,south_east,0,0,0,0,299,249,1,south_east,0,0,80
SR01TR,5.92,116.12,FALSE,LEFT,51,-141.36,827,610.5,705.9,1,340.35,777,836,524.9,RIGHT,NONE,0,81,1,390,north_west,0,south_east,0,0,0,0,304,254,1,south_west,0,0,81
SR01TR,6.42,152.89,FALSE,UP,42,45.52,981,1084,283.7,1,332.2,940,865.1,506.8,RIGHT,NONE,0,82,1,609,north_west,0,south_east,0,0,0,0,236,195,1,north_east,0,0,82
SR01TR,6.06,140.84,FALSE,LEFT,43,139.31,766,615.8,331.9,1,205.81,724,839.2,524,RIGHT,NONE,0,83,1,357,north_west,0,south_east,0,0,0,0,275,233,1,north_west,0,0,83
SR01TR,5.48,111.76,FALSE,LEFT,49,-136.83,899,638.9,729.4,1,302.15,851,833.6,545.8,RIGHT,NONE,0,84,1,494,north_west,0,south_east,0,0,0,0,273,225,1,south_west,0,0,84
SR01TR,6.44,149.75,FALSE,LEFT,43,136.23,989,626.8,306.1,1,283.7,947,852.8,522.8,RIGHT,NONE,0,85,1,603,north_west,0,south_east,0,0,0,0,251,208,1,north_west,0,0,85
SR01TR,5.8,134.99,FALSE,UP,43,46.08,780,1047.8,333.1,1,267.24,738,852.1,536.5,RIGHT,NONE,0,86,1,372,north_west,0,south_east,0,0,0,0,273,231,1,north_east,0,0,86
SR01TR,0.84,38.39,FALSE,UP,22,45.42,1148,1079.6,321.1,2,76.82,1127,1050.7,350.4,RIGHT,NONE,0,86,1,372,north_west,0,south_east,0,0,0,0,273,231,1,north_east,0,0,86
SR01TR,5.7,150.01,FALSE,RIGHT,38,-39.49,740,1053.6,734.6,1,302.48,703,838.9,556.8,RIGHT,NONE,0,87,1,347,north_west,0,south_east,0,0,0,0,260,223,1,south_east,0,0,87
SR01TR,6.82,155.09,FALSE,LEFT,44,139.44,911,596.7,326.2,1,287.2,868,848.9,542.3,RIGHT,NONE,0,88,1,514,north_west,0,south_east,0,0,0,0,265,222,1,north_west,0,0,88
SR01TR,6.83,155.29,FALSE,LEFT,44,137.43,1031,595.4,299.2,1,263.72,988,840.2,524.3,RIGHT,NONE,0,89,1,629,north_west,0,south_east,0,0,0,0,280,236,1,north_west,0,0,89
SR01TR,5.54,158.37,FALSE,RIGHT,35,40.74,685,1047.2,348.5,1,258.71,651,843.1,524.5,RIGHT,NONE,0,90,1,286,north_west,0,south_east,0,0,0,0,265,231,1,north_east,0,0,90
SR01TR,5.77,151.83,FALSE,RIGHT,38,-40.52,765,1063.9,703.5,1,282.9,728,850.1,520,RIGHT,NONE,0,91,1,377,north_west,0,south_east,0,0,0,0,254,217,1,south_east,0,0,91
SR01TR,6.27,160.86,FALSE,LEFT,39,139.33,689,605.9,321.5,1,260.1,651,837.4,520.4,RIGHT,NONE,0,92,1,250,north_west,0,south_east,0,0,0,0,304,266,1,north_west,0,0,92
SR01TR,6.52,144.93,FALSE,UP,45,46.2,865,1061.9,299.8,1,277.96,821,842.3,528.8,RIGHT,NONE,0,93,1,480,north_west,0,south_east,0,0,0,0,250,206,1,north_east,0,0,93
SR01TR,4.9,114.04,FALSE,RIGHT,43,-40.06,724,1020.7,651.1,1,236,682,838.1,497.1,RIGHT,NONE,0,94,1,339,north_west,0,south_east,0,0,0,0,253,211,1,south_east,0,0,94
SR01TR,1.01,45.84,FALSE,DOWN,22,-56.11,872,1056.7,686.2,2,82.11,851,1029.2,645.1,RIGHT,NONE,0,94,1,339,north_west,0,south_east,0,0,0,0,253,211,1,south_east,0,0,94
SR01TR,6.09,129.61,FALSE,RIGHT,47,44.68,874,1055.3,316.1,1,245.72,828,844.8,524.5,RIGHT,NONE,0,95,1,502,north_west,0,south_east,0,0,0,0,238,192,1,north_east,0,0,95
SR01TR,6.52,144.93,FALSE,LEFT,45,139.78,872,620.3,316.6,1,233.9,828,862.3,521.5,RIGHT,NONE,0,96,1,454,north_west,0,south_east,0,0,0,0,283,239,1,north_west,0,0,96
SR01TR,6.1,138.62,FALSE,LEFT,44,135.71,1188,620.3,333.6,1,245.56,1145,832.5,541,RIGHT,NONE,0,97,1,783,north_west,0,south_east,0,0,0,0,273,230,1,north_west,0,0,97
SR01TR,5.58,123.95,FALSE,LEFT,45,-136.98,994,640.9,707.2,1,270.08,950,839.7,521.1,RIGHT,NONE,0,98,1,562,north_west,0,south_east,0,0,0,0,297,253,1,south_west,0,0,98
SR01TR,6.3,149.88,FALSE,LEFT,42,137.4,762,629.3,312.2,1,272.13,721,854.5,519.5,RIGHT,NONE,0,99,1,354,north_west,0,south_east,0,0,0,0,275,234,1,north_west,0,0,99
SR01TR,5.51,112.45,FALSE,LEFT,49,-135.87,719,656.4,721,1,235.21,671,849.2,533.2,RIGHT,NONE,0,100,1,234,north_west,0,south_east,0,0,0,0,351,303,1,south_west,0,0,100
SR01TR,5.67,123.21,FALSE,LEFT,46,-143.93,878,637.5,685.8,1,259.4,833,860.6,522.6,RIGHT,NONE,0,101,1,436,north_west,0,south_east,0,0,0,0,309,263,1,south_west,0,0,101
SR01TR,6.08,129.33,FALSE,RIGHT,47,44.89,1152,1062.8,344.3,1,271.91,1106,853.5,553.2,RIGHT,NONE,0,102,1,759,north_west,0,south_east,0,0,0,0,259,213,1,north_east,0,0,102
SR01TR,0.21,34.73,FALSE,.,6,151.71,376,817.2,518.5,1,30.28,371,826.1,523.3,RIGHT,NONE,0,103,1,772,north_west,0,south_east,0,0,0,0,268,227,1,north_west,0,0,103
SR01TR,6.32,150.41,FALSE,LEFT,42,137.84,1176,608.6,303.6,2,257.84,1135,836.4,510.1,RIGHT,NONE,0,103,1,772,north_west,0,south_east,0,0,0,0,268,227,1,north_west,0,0,103
SR01TR,5.89,136.91,FALSE,RIGHT,43,41.16,748,1052,348.2,1,276.02,706,836.6,536.7,RIGHT,NONE,0,104,1,372,north_west,0,south_east,0,0,0,0,256,214,1,north_east,0,0,104
SR01TR,0.62,36.47,FALSE,UP,17,98,947,1044.2,335.3,2,47.97,931,1048.4,365.2,RIGHT,NONE,0,104,1,372,north_west,0,south_east,0,0,0,0,256,214,1,north_east,0,0,104
SR01TR,6.46,143.55,FALSE,RIGHT,45,44.07,1064,1061.8,288.2,1,302.34,1020,836,507,RIGHT,NONE,0,105,1,671,north_west,0,south_east,0,0,0,0,259,215,1,north_east,0,0,105
SR01TR,6.27,142.6,FALSE,LEFT,44,138.37,1043,621.1,318.1,1,260.61,1000,849,520.9,RIGHT,NONE,0,106,1,630,north_west,0,south_east,0,0,0,0,278,235,1,north_west,0,0,106
SR01TR,6.16,140.1,FALSE,RIGHT,44,42.86,766,1060.5,327.5,1,294.86,723,840.9,531.5,RIGHT,NONE,0,107,1,367,north_west,0,south_east,0,0,0,0,264,220,1,north_east,0,0,107
SR01TR,0.8,44.59,FALSE,UP,18,100.74,1024,1060.1,307.9,2,54.31,1007,1067.4,346.3,RIGHT,NONE,0,107,1,367,north_west,0,south_east,0,0,0,0,264,220,1,north_east,0,0,107
SR01TR,5.62,119.54,FALSE,LEFT,47,-140.52,1211,642.6,709.2,1,249.89,1165,854,534.5,RIGHT,NONE,0,108,1,773,north_west,0,south_east,0,0,0,0,316,270,1,south_west,0,0,108
SR01TR,5.65,122.87,FALSE,LEFT,46,-141.19,717,627.6,708.3,1,266.61,672,842.3,534.9,RIGHT,NONE,0,109,1,250,north_west,0,south_east,0,0,0,0,332,287,1,south_west,0,0,109
SR01TR,5.64,156.79,FALSE,RIGHT,36,-38.05,670,1053.1,703.4,1,304.43,635,836.4,533.3,RIGHT,NONE,0,110,1,264,north_west,0,south_east,0,0,0,0,272,237,1,south_east,0,0,110
SR01TR,5.88,133.64,FALSE,RIGHT,44,-41.02,753,1063.5,705.8,1,301.2,710,847.2,516.9,RIGHT,NONE,0,111,1,335,north_west,0,south_east,0,0,0,0,284,241,1,south_east,0,0,111
SR01TR,6.44,149.67,FALSE,LEFT,43,138.86,893,618.1,303.1,1,271.82,851,853.9,509.1,RIGHT,NONE,0,112,1,491,north_west,0,south_east,0,0,0,0,266,224,1,north_west,0,0,112
SR01TR,5.79,134.74,FALSE,RIGHT,43,43.72,747,1048.9,348.7,1,256.39,705,845.4,543.7,RIGHT,NONE,0,113,1,354,north_west,0,south_east,0,0,0,0,262,220,1,north_east,0,0,113
SR01TR,1.04,51.99,FALSE,UP,20,74.09,924,1061,321.2,2,76.06,905,1047.1,369.9,RIGHT,NONE,0,113,1,354,north_west,0,south_east,0,0,0,0,262,220,1,north_east,0,0,113
SR01TR,0.27,44.47,FALSE,.,6,159.22,409,820.4,525.9,1,33.69,404,832.5,530.5,RIGHT,NONE,0,114,1,737,north_west,0,south_east,0,0,0,0,261,222,1,south_east,0,0,114
SR01TR,5.52,138.07,FALSE,RIGHT,40,-43.5,1120,1031,703.7,2,275.37,1081,835.9,517.8,RIGHT,NONE,0,114,1,737,north_west,0,south_east,0,0,0,0,261,222,1,south_east,0,0,114
SR01TR,5.22,108.74,FALSE,LEFT,48,-141.56,757,641.6,676.6,1,236.06,710,840.7,518.1,RIGHT,NONE,0,115,1,254,north_west,0,south_east,0,0,0,0,370,323,1,south_west,0,0,115
SR01TR,5.14,111.79,FALSE,LEFT,46,-139.42,861,639.8,678.9,1,220.71,816,830,515.5,RIGHT,NONE,0,116,1,419,north_west,0,south_east,0,0,0,0,310,265,1,south_west,0,0,116
SR01TR,5.02,122.51,FALSE,RIGHT,41,-36.51,698,1025.5,663.2,1,248.13,658,828.9,517.2,RIGHT,NONE,0,117,1,313,north_west,0,south_east,0,0,0,0,265,225,1,south_east,0,0,117
SR01TR,0.8,42.03,FALSE,DOWN,19,-60.92,865,1049.3,692.3,2,65.28,847,1030.3,658,RIGHT,NONE,0,117,1,313,north_west,0,south_east,0,0,0,0,265,225,1,south_east,0,0,117
SR01TR,6.29,153.42,FALSE,UP,41,134.74,710,617.8,323.1,1,261.1,670,833.2,540.7,RIGHT,NONE,0,118,1,268,north_west,0,south_east,0,0,0,0,307,267,1,north_west,0,0,118
SR01TR,6.37,148.11,FALSE,LEFT,43,136.9,999,621.4,314.7,1,276.2,957,847.4,526.4,RIGHT,NONE,0,119,1,595,north_west,0,south_east,0,0,0,0,270,227,1,north_west,0,0,119
SR01TR,6.36,144.49,FALSE,LEFT,44,136.17,857,624.2,307.4,1,245.1,814,847.1,521.6,RIGHT,NONE,1,0,1,459,north_west,0,south_east,0,1,0,0,268,225,1,north_west,0,1,120
SR01TR,5.99,139.36,FALSE,RIGHT,43,42.56,739,1055.3,329.7,1,257.15,697,840.8,526.9,RIGHT,NONE,1,1,1,352,north_west,0,south_east,0,0,0,0,264,222,1,north_east,0,1,121
SR01TR,0.69,40.71,FALSE,UP,17,82.33,975,1057.6,316.8,2,50.59,959,1053.1,350.2,RIGHT,NONE,1,1,1,352,north_west,0,south_east,0,0,0,0,264,222,1,north_east,0,1,121
SR01TR,3.86,91.99,FALSE,UP,42,67.2,769,906.8,357.8,1,157.88,728,834.2,530.9,RIGHT,NONE,1,2,2,405,north_west,0,south_east,0,-1,0,0,317,267,0,north_west,1,0,122
SR01TR,6.03,118.23,FALSE,LEFT,51,167.79,856,617.3,311.6,2,287.47,806,904,373.6,RIGHT,NONE,1,2,2,405,north_west,0,south_east,0,-1,0,0,317,267,0,north_west,1,0,122
SR01TR,5.36,105.09,FALSE,LEFT,51,-140.6,920,636.6,718.9,1,288.7,870,838.5,552.2,RIGHT,NONE,1,3,1,499,north_west,0,south_east,0,0,0,0,288,238,1,south_west,0,0,123
SR01TR,6.05,144.01,FALSE,RIGHT,42,42.79,1056,1051.9,329.7,1,298.71,1015,836.2,529.6,RIGHT,NONE,1,4,1,686,north_west,0,south_east,0,0,0,0,251,210,1,north_east,0,0,124
SR01TR,5.63,128.04,FALSE,DOWN,44,-134.35,1116,656.2,729.1,1,287.41,1073,848.2,531.9,RIGHT,NONE,1,5,1,693,north_west,0,south_east,0,0,0,0,289,245,1,south_west,0,0,125
SR01TR,4.86,115.79,FALSE,LEFT,42,-140.25,851,665.4,668.1,1,229.2,810,847.3,516.2,RIGHT,NONE,1,6,1,438,north_west,0,south_east,0,0,1,0,279,237,1,south_west,0,0,126
SR01TR,5.3,112.75,FALSE,RIGHT,47,43.57,1105,1020.9,350.2,1,192.44,1059,834.5,527.7,RIGHT,NONE,1,7,1,702,north_west,0,south_east,0,0,0,0,282,236,1,north_east,0,0,127
SR01TR,1.12,53.11,FALSE,UP,21,60.88,1310,1046.1,320.4,2,87.54,1290,1019.7,367.8,RIGHT,NONE,1,7,1,702,north_west,0,south_east,0,0,0,0,282,236,1,north_east,0,0,127
SR01TR,5.24,106.98,FALSE,LEFT,49,-141.47,872,654.2,690.1,1,259.22,824,853.9,530.4,RIGHT,NONE,1,8,1,408,north_west,0,south_east,0,0,0,0,331,283,1,south_west,0,0,128
SR01TR,4.04,91.8,FALSE,RIGHT,44,41.43,1424,783,589.1,2,174.17,1381,635.2,720.2,RIGHT,NONE,1,8,1,408,north_west,0,south_east,0,0,0,0,331,283,1,south_west,0,0,128
SR01TR,5.49,166.38,FALSE,RIGHT,33,-40.01,1026,1054.6,708.2,1,322.73,994,849.6,535.4,RIGHT,NONE,1,9,1,639,north_west,0,south_east,0,1,0,0,252,220,1,south_east,0,1,129
SR01TR,5.64,128.28,FALSE,RIGHT,44,-42.4,716,1062.1,707.4,1,254.8,673,858.9,521.1,RIGHT,NONE,1,10,1,290,north_west,0,south_east,0,1,0,0,294,251,1,south_east,0,2,130
SR01TR,6.11,142.17,FALSE,RIGHT,43,39.28,1074,1091.3,327.2,1,276.52,1032,861.1,515.7,RIGHT,NONE,1,11,1,679,north_west,0,south_east,0,0,0,0,258,217,1,north_east,0,2,131
SR01TR,0.37,36.64,FALSE,.,10,118.38,1349,1070.6,327,2,37.14,1340,1079.1,342.7,RIGHT,NONE,1,11,1,679,north_west,0,south_east,0,0,0,0,258,217,1,north_east,0,2,131
SR01TR,6.28,153.22,FALSE,LEFT,41,138.3,949,600.4,314.9,1,256.89,909,828.6,518.4,RIGHT,NONE,1,12,1,544,north_west,0,south_east,0,10,0,0,271,230,1,north_west,0,12,132
SR01TR,5.58,113.94,FALSE,RIGHT,49,-38.33,735,1035,708.7,1,293.4,687,821.5,539.2,RIGHT,NONE,1,13,1,310,north_west,0,south_east,0,1,0,0,290,242,1,south_east,0,13,133
SR01TR,5.78,140.91,FALSE,LEFT,41,140.97,1159,630.3,322.2,1,256.24,1119,848.4,499.2,RIGHT,NONE,1,14,1,764,north_west,0,south_east,0,10,1,0,261,221,1,north_west,0,23,134
SR01TR,0.4,40.45,FALSE,.,10,74.69,1432,638.1,309.3,2,38.53,1423,632.9,328.3,RIGHT,NONE,1,14,1,764,north_west,0,south_east,0,10,1,0,261,221,1,north_west,0,23,134
SR01TR,5.78,125.67,FALSE,RIGHT,46,44.44,678,1025.8,325.4,1,212.72,633,825.2,522.3,RIGHT,NONE,1,15,1,249,north_west,0,south_east,0,0,0,0,307,262,1,north_east,0,23,135
SR01TR,6.32,140.36,FALSE,UP,45,45.72,1004,1053.2,318.5,1,280.1,960,838.9,538.5,RIGHT,NONE,1,16,1,626,north_west,0,south_east,0,0,0,0,242,198,1,north_east,0,23,136
SR01TR,6.31,134.36,FALSE,RIGHT,47,44.98,696,1068.9,301.5,1,263.77,650,851.6,518.9,RIGHT,NONE,1,17,1,311,north_west,0,south_east,0,0,0,0,264,218,1,north_east,0,23,137
SR01TR,6.56,149.02,FALSE,RIGHT,44,41.34,707,1068.6,317.6,1,294.35,664,829.1,528.3,RIGHT,NONE,1,18,1,309,north_west,0,south_east,0,0,0,0,265,222,1,north_east,0,23,138
SR01TR,5.85,127.09,FALSE,LEFT,46,-136.99,730,636.1,712.1,1,249.91,685,844.5,516.9,RIGHT,NONE,1,19,1,295,north_west,0,south_east,0,0,0,0,301,256,1,south_west,0,23,139
SR01TR,6.02,158.32,FALSE,RIGHT,38,39.26,742,1056.4,334.4,1,264.78,705,830,519.6,RIGHT,NONE,1,20,1,345,north_west,0,south_east,0,0,0,0,265,228,1,north_east,0,23,140
SR01TR,3.18,88.47,FALSE,RIGHT,36,30.05,937,969.6,472.4,1,148.32,902,835.9,550,RIGHT,NONE,1,21,2,574,north_west,0,south_east,0,-1,0,0,344,293,0,south_east,1,22,141
SR01TR,5.21,100.11,FALSE,DOWN,52,-78.17,1052,1020.2,733.7,2,262.77,1001,968.1,484.3,RIGHT,NONE,1,21,2,574,north_west,0,south_east,0,-1,0,0,344,293,0,south_east,1,22,141
SR01TR,1.26,54.81,FALSE,RIGHT,23,34.27,1297,1069.7,730.4,3,100.28,1275,1018.6,765.5,RIGHT,NONE,1,21,2,574,north_west,0,south_east,0,-1,0,0,344,293,0,south_east,1,22,141
SR01TR,5.33,130.07,FALSE,LEFT,41,-139.68,1072,640.9,729.8,1,258.39,1032,839.1,560.7,RIGHT,NONE,1,22,1,647,north_west,0,south_east,0,0,0,0,292,252,1,south_west,0,22,142
SR01TR,5.66,125.73,FALSE,RIGHT,45,41.17,714,1040.6,341.4,1,237.51,670,833.6,522.6,RIGHT,NONE,1,23,1,282,north_west,0,south_east,0,0,0,0,310,266,1,north_east,0,22,143
SR01TR,0.75,41.85,FALSE,UP,18,82.8,911,1050.6,315.7,2,52.34,894,1046,352.1,RIGHT,NONE,1,23,1,282,north_west,0,south_east,0,0,0,0,310,266,1,north_east,0,22,143
SR01TR,6.13,130.4,FALSE,LEFT,47,136.04,914,624,341.6,1,251.56,868,838.4,548.8,RIGHT,NONE,1,24,1,398,north_west,0,south_east,0,10,0,0,382,336,1,north_west,0,32,144
SR01TR,0.22,36.62,FALSE,.,6,159.77,382,832.1,544.7,1,31.12,377,842.1,548.4,RIGHT,NONE,1,25,1,728,north_west,0,south_east,0,0,0,0,289,250,1,south_west,0,32,145
SR01TR,5.53,138.15,FALSE,LEFT,40,-141.42,1151,621.4,690.8,2,259.34,1112,832,522.3,RIGHT,NONE,1,25,1,728,north_west,0,south_east,0,0,0,0,289,250,1,south_west,0,32,145
SR01TR,0.6,54.96,FALSE,LEFT,11,-171.12,1566,593.9,714.7,3,53.32,1556,623.2,710.1,RIGHT,NONE,1,25,1,728,north_west,0,south_east,0,0,0,0,289,250,1,south_west,0,32,145
SR01TR,6.21,129.47,FALSE,RIGHT,48,41.31,739,1067.2,310.3,1,228.55,692,840.1,509.9,RIGHT,NONE,1,26,1,272,north_west,0,south_east,0,0,0,0,345,298,1,north_east,0,32,146
SR01TR,6.12,156.87,FALSE,RIGHT,39,40.5,1080,1044.5,327.9,1,297.84,1042,818.4,521.2,RIGHT,NONE,1,27,1,618,north_west,0,south_east,0,0,1,0,330,291,1,north_east,0,32,147
SR01TR,6.11,132.92,FALSE,UP,46,45.23,966,1075,301.1,1,250.99,921,865.5,512.5,RIGHT,NONE,1,28,1,578,north_west,0,south_east,0,0,0,0,253,208,1,north_east,0,32,148
SR01TR,5.85,139.33,FALSE,LEFT,42,139.42,914,614.9,371.7,1,231.65,873,830.9,557.1,RIGHT,NONE,1,29,1,499,north_west,0,south_east,0,10,0,0,281,240,1,north_west,0,42,149
SR01TR,5.57,146.45,FALSE,RIGHT,38,-41.78,937,1047.1,723.5,1,284.67,900,844.8,541.8,RIGHT,NONE,1,30,1,518,north_west,0,south_east,0,1,0,0,285,248,1,south_east,0,43,150
SR01TR,0.32,24.87,FALSE,.,13,-40.26,1359,1058.4,726.9,2,31.36,1347,1046.3,716.6,RIGHT,NONE,1,30,1,518,north_west,0,south_east,0,1,0,0,285,248,1,south_east,0,43,150
SR01TR,5.85,129.93,FALSE,LEFT,45,-140.17,1218,623.3,716.6,1,254.71,1174,842.2,533.3,RIGHT,NONE,1,31,1,793,north_west,0,south_east,0,0,0,0,291,247,1,south_west,0,43,151
SR01TR,5.83,132.6,FALSE,LEFT,44,136.24,862,650.7,324.8,1,198.84,819,855.5,521.1,RIGHT,NONE,1,32,1,452,north_west,0,south_east,0,10,0,0,278,236,1,north_west,0,53,152
SR01TR,5.42,123.24,FALSE,LEFT,44,-137.85,815,650.3,724.6,1,219.2,772,846.3,546.3,RIGHT,NONE,1,33,1,281,north_west,0,south_east,0,0,0,0,401,358,1,south_west,0,53,153
SR01TR,5.78,125.71,FALSE,RIGHT,46,-42,793,1049.7,715.8,1,259.38,748,840.2,526.4,RIGHT,NONE,1,34,1,336,north_west,0,south_east,0,10,0,0,324,278,1,south_east,0,63,154
SR01TR,4.26,118.4,FALSE,LEFT,36,-148.07,1048,663.6,604.8,1,186.22,1013,839.4,494.9,RIGHT,NONE,1,35,2,538,north_west,0,south_east,0,-1,0,0,1805,1784,0,south_west,1,62,155
SR01TR,1.13,51.47,FALSE,LEFT,22,-148.1,2479,602.2,725.3,2,95.11,2458,649.3,695.8,RIGHT,NONE,1,35,2,538,north_west,0,south_east,0,-1,0,0,1805,1784,0,south_west,1,62,155
SR01TR,16.94,393.89,TRUE,DOWN,43,-96.8,3019,508.8,1612.9,3,962.97,2977,611.6,710.6,RIGHT,AFTER,1,35,2,538,north_west,0,south_east,0,-1,0,0,1805,1784,0,south_west,1,62,155
SR01TR,5.37,124.97,FALSE,LEFT,43,-136.49,914,647.1,718.2,1,251.9,872,837.1,537.1,RIGHT,NONE,1,36,1,507,north_west,0,south_east,0,0,0,0,286,244,1,south_west,0,62,156
SR01TR,0.77,51.5,FALSE,LEFT,15,172.91,1233,608,714.6,2,62.37,1219,645.6,719.3,RIGHT,NONE,1,36,1,507,north_west,0,south_east,0,0,0,0,286,244,1,south_west,0,62,156
SR01TR,5.92,147.89,FALSE,LEFT,40,-143.29,1021,623.1,696.4,1,272.02,982,854.3,523.5,RIGHT,NONE,1,37,1,626,north_west,0,south_east,0,0,0,0,274,234,1,south_west,0,62,157
SR01TR,5.48,127.39,FALSE,RIGHT,43,-43.12,1047,1066.5,699.1,1,269.02,1005,871.6,516,RIGHT,NONE,1,38,1,650,north_west,0,south_east,0,1,0,0,263,220,1,south_east,0,63,158
SR01TR,5.05,109.86,FALSE,LEFT,46,-136.12,875,666.1,688.2,1,240.49,830,843.5,517.1,RIGHT,NONE,1,39,1,449,north_west,0,south_east,0,0,0,0,293,248,1,south_west,0,63,159
SR01TR,0.85,60.62,FALSE,LEFT,14,-173.81,1131,610.3,683.4,2,64.39,1118,651.6,678.9,RIGHT,NONE,1,39,1,449,north_west,0,south_east,0,0,0,0,293,248,1,south_west,0,63,159
SR01TR,5.32,156.47,FALSE,RIGHT,34,-39.02,1152,1041.5,677.9,1,288.97,1119,840.2,514.3,RIGHT,NONE,1,40,1,766,north_west,0,south_east,0,1,1,0,252,219,1,south_east,0,64,160
SR01TR,0.65,49.88,FALSE,RIGHT,13,-5.4,1540,1083.6,669.2,2,52.65,1528,1052,666.2,RIGHT,NONE,1,40,1,766,north_west,0,south_east,0,1,1,0,252,219,1,south_east,0,64,160
SR01TR,5.69,118.46,FALSE,RIGHT,48,-39.27,941,1062.2,693.8,1,233.38,894,847.6,517.8,RIGHT,NONE,1,41,1,496,north_west,0,south_east,0,1,0,0,311,264,1,south_east,0,65,161
SR01TR,5.65,131.45,FALSE,RIGHT,43,-40.09,1135,1050.5,717.7,1,272.18,1093,839.7,539.5,RIGHT,NONE,1,42,1,750,north_west,0,south_east,0,1,0,0,251,209,1,south_east,0,66,162
SR01TR,6.31,134.29,FALSE,LEFT,47,135.53,678,637.3,310.1,1,238.21,632,856.2,525.2,RIGHT,NONE,1,43,1,222,north_west,0,south_east,0,10,0,0,322,276,1,north_west,0,76,163
SR01TR,5.16,105.21,FALSE,RIGHT,49,-31.53,1089,1059.9,664.1,1,280.42,1041,845.9,532.4,RIGHT,NONE,1,44,2,694,north_west,0,south_east,0,-1,0,0,346,301,0,north_east,1,75,164
SR01TR,7.47,165.92,FALSE,UP,45,93.73,1174,1044.1,311.7,2,317.79,1130,1067.8,676.4,RIGHT,NONE,1,44,2,694,north_west,0,south_east,0,-1,0,0,346,301,0,north_east,1,75,164
SR01TR,5.53,128.54,FALSE,LEFT,43,-139.83,1100,640.1,721,1,236.54,1058,846,546.3,RIGHT,NONE,1,45,1,632,north_west,0,south_east,0,0,0,0,334,292,1,south_west,0,75,165
SR01TR,5.95,141.58,FALSE,LEFT,42,136.43,908,610.4,330.6,1,218.08,867,820,530,RIGHT,NONE,1,46,1,510,north_west,0,south_east,0,10,0,0,276,234,1,north_west,0,85,166
SR01TR,3.09,81.3,FALSE,UP,38,71.22,1079,898.6,373.8,1,114.8,1042,850.4,515.8,RIGHT,NONE,1,47,2,702,north_west,0,south_east,0,-1,0,0,2669,1857,0,north_west,1,84,167
SR01TR,5.11,130.98,FALSE,LEFT,39,165.87,1144,638.3,320.3,2,220.1,1106,878.8,380.9,RIGHT,NONE,1,47,2,702,north_west,0,south_east,0,-1,0,0,2669,1857,0,north_west,1,84,167
SR01TR,0.7,58.09,FALSE,LEFT,12,146.78,2704,625.2,302.3,3,57.21,2693,653.6,320.9,RIGHT,NONE,1,47,2,702,north_west,0,south_east,0,-1,0,0,2669,1857,0,north_west,1,84,167
SR01TR,0.33,2.3,TRUE,.,145,128.99,3505,636.8,296.6,4,1254.91,3361,647,309.2,RIGHT,AFTER,1,47,2,702,north_west,0,south_east,0,-1,0,0,2669,1857,0,north_west,1,84,167
SR01TR,0.17,1.35,TRUE,.,129,134.05,3760,632.5,304.7,5,1316.98,3632,638.4,310.8,RIGHT,BOTH,1,47,2,702,north_west,0,south_east,0,-1,0,0,2669,1857,0,north_west,1,84,167
SR01TR,5.82,126.47,FALSE,LEFT,46,-137.17,865,613,722,1,255.17,820,821.2,528.4,RIGHT,NONE,1,48,1,392,north_west,0,south_east,0,0,0,0,339,294,1,south_west,0,84,168
SR01TR,5.8,152.66,FALSE,RIGHT,38,-43.01,1077,1054,732.8,1,321.02,1040,847,538.9,RIGHT,NONE,1,49,1,689,north_west,0,south_east,0,1,0,0,253,215,1,south_east,0,85,169
SR01TR,5.67,118.03,FALSE,RIGHT,48,-43.96,694,1035.2,710.9,1,238.68,647,836.4,518.4,RIGHT,NONE,1,50,1,277,north_west,0,south_east,0,1,0,0,284,237,1,south_east,0,86,170
SR01TR,5.74,133.45,FALSE,RIGHT,43,-42.15,679,1052.6,712.6,1,270.57,637,845.2,524.1,RIGHT,NONE,1,51,1,272,north_west,0,south_east,0,10,0,0,286,244,1,south_east,0,96,171
SR01TR,5.7,126.7,FALSE,LEFT,45,-136.7,889,639.8,725.3,1,261.3,845,842.1,533.9,RIGHT,NONE,1,52,1,457,north_west,0,south_east,0,0,0,0,300,256,1,south_west,0,96,172
SR01TR,5.88,136.81,FALSE,LEFT,43,-137.76,735,626.6,726.9,1,236.46,693,838.9,533.3,RIGHT,NONE,1,53,1,274,north_west,0,south_east,0,0,0,0,328,286,1,south_west,0,96,173
SR01TR,0.33,21.83,FALSE,.,15,109.65,969,614.4,707.9,2,27.71,955,619.8,723.1,RIGHT,NONE,1,53,1,274,north_west,0,south_east,0,0,0,0,328,286,1,south_west,0,96,173
SR01TR,6.24,138.77,FALSE,RIGHT,45,-42.55,779,1074.1,727,1,274.1,735,849.6,520.1,RIGHT,NONE,1,54,1,382,north_west,0,south_east,0,1,0,0,276,232,1,south_east,0,97,174
SR01TR,0.44,48.61,FALSE,.,9,165.78,1046,1054.6,714.9,2,41.9,1038,1075.4,720.2,RIGHT,NONE,1,54,1,382,north_west,0,south_east,0,1,0,0,276,232,1,south_east,0,97,174
SR01TR,4.99,108.44,FALSE,LEFT,46,-141.61,797,633.4,713.3,1,211.01,752,824,561.5,RIGHT,NONE,1,55,1,359,north_west,0,south_east,0,0,0,0,305,260,1,south_west,0,97,175
SR01TR,0.72,55.35,FALSE,LEFT,13,-171.4,1119,588.7,701.8,2,58.64,1107,623.6,696.5,RIGHT,NONE,1,55,1,359,north_west,0,south_east,0,0,0,0,305,260,1,south_west,0,97,175
SR01TR,5.93,134.77,FALSE,LEFT,44,-141.67,708,629.1,736.3,1,259.44,665,856.1,555.9,RIGHT,NONE,1,56,1,224,north_west,0,south_east,0,0,0,0,363,320,1,south_west,0,97,176
SR01TR,5.95,138.42,FALSE,RIGHT,43,-39.85,788,1077.3,700.2,1,262.65,746,854.3,513.5,RIGHT,NONE,1,57,1,364,north_west,0,south_east,0,1,0,0,293,251,1,south_east,0,98,177
SR01TR,5.87,133.39,FALSE,UP,44,46.23,1022,1034.6,297.9,1,239.61,979,837.3,504.1,RIGHT,NONE,1,58,1,520,north_west,0,south_east,0,0,0,0,381,337,1,north_east,0,98,178
SR01TR,5.91,125.74,FALSE,LEFT,47,-145.21,1047,613,691.5,1,219.3,1001,849.6,526.6,RIGHT,NONE,1,59,1,606,north_west,0,south_east,0,0,0,0,319,273,1,south_west,0,98,179
SR01TR,5.98,138.97,FALSE,RIGHT,43,-42.73,915,1057.2,724.9,1,263.79,873,843,526.4,RIGHT,NONE,1,60,1,496,north_west,0,south_east,0,1,0,0,286,244,1,south_east,0,99,180
SR01TR,5.76,125.13,FALSE,RIGHT,46,44.59,974,1038.8,310.8,1,248.88,929,839.6,507.4,RIGHT,NONE,1,61,1,563,north_west,0,south_east,0,0,0,0,288,243,1,north_east,0,99,181
SR01TR,6.34,137.77,FALSE,LEFT,46,135.08,741,632.5,298.6,1,216.8,696,850.6,516.3,RIGHT,NONE,1,62,1,272,north_west,0,south_east,0,10,0,0,339,294,1,north_west,0,109,182
SR01TR,6.14,136.38,FALSE,RIGHT,45,-39.38,880,1082.7,697.6,1,276.01,836,851.2,507,RIGHT,NONE,1,63,1,372,north_west,0,south_east,0,1,0,0,373,328,1,south_east,0,110,183
SR01TR,5.99,127.41,FALSE,RIGHT,47,-40.74,911,1060.6,737.7,1,244.19,865,839.2,546,RIGHT,NONE,1,64,1,512,north_west,0,south_east,0,10,0,0,265,219,1,south_east,0,120,184
SR01TR,5.66,134.65,FALSE,LEFT,42,-148.41,995,623.3,652.2,1,256.87,954,857.9,507.5,RIGHT,NONE,1,65,1,540,north_west,0,south_east,0,0,0,0,323,282,1,south_west,0,120,185
SR01TR,0.38,42.59,FALSE,.,9,-13.83,1233,642.9,670.2,2,39.89,1225,624.7,665.7,RIGHT,NONE,1,65,1,540,north_west,0,south_east,0,0,0,0,323,282,1,south_west,0,120,185
SR01TR,6.1,135.63,FALSE,UP,45,45.26,776,1046.9,296,1,243.46,732,838.1,506.9,RIGHT,NONE,1,66,1,357,north_west,0,south_east,0,0,0,0,285,242,1,north_east,0,120,186
SR01TR,6.37,141.54,FALSE,UP,45,45.18,865,1066.8,302.5,1,273.07,821,848.4,522.3,RIGHT,NONE,1,67,1,446,north_west,0,south_east,0,0,0,0,283,239,1,north_east,0,120,187
SR01TR,5.81,148.93,FALSE,RIGHT,39,-37.35,1092,1052.3,697.4,1,268.42,1054,827.2,525.1,RIGHT,NONE,1,68,1,706,north_west,0,south_east,0,1,0,0,254,216,1,south_east,0,121,188
SR01TR,6.46,129.23,FALSE,UP,50,47.72,691,1069.1,290.6,1,189.95,642,857.6,523.4,RIGHT,NONE,1,69,1,204,north_west,0,south_east,0,0,0,0,353,304,1,north_east,0,121,189
SR01TR,6.86,140.07,FALSE,LEFT,49,136.85,936,605.3,287.3,1,224.11,888,848.9,515.9,RIGHT,NONE,1,70,1,526,north_west,0,south_east,0,10,0,0,280,232,1,north_west,0,131,190
SR01TR,5.96,138.7,FALSE,LEFT,43,135.6,744,644.5,334,1,224.38,702,851.6,537,RIGHT,NONE,1,71,1,310,north_west,0,south_east,0,10,0,0,300,258,1,north_west,0,141,191
SR01TR,0.61,51.01,FALSE,LEFT,12,172.68,994,610.3,332.6,2,49.91,983,639.9,336.4,RIGHT,NONE,1,71,1,310,north_west,0,south_east,0,10,0,0,300,258,1,north_west,0,141,191
SR01TR,5.74,136.57,FALSE,RIGHT,42,-39.43,1062,1053.6,720.8,1,285.8,1021,837.6,542.3,RIGHT,NONE,1,72,1,671,north_west,0,south_east,0,10,0,0,256,214,1,south_east,0,151,192
SR01TR,5.63,130.83,FALSE,RIGHT,43,-41.53,1106,1050.7,713.7,1,255.12,1064,845.4,531.1,RIGHT,NONE,1,73,1,726,north_west,0,south_east,0,1,0,0,247,206,1,south_east,0,152,193
SR01TR,5.95,141.78,FALSE,LEFT,42,138.94,759,624.3,332,1,234.09,718,842.5,522.3,RIGHT,NONE,1,74,1,333,north_west,0,south_east,0,10,0,0,292,251,1,north_west,0,162,194
SR01TR,0.35,21.8,FALSE,.,16,151.9,1097,601.6,326.5,2,40.48,1082,616.6,334.5,RIGHT,NONE,1,74,1,333,north_west,0,south_east,0,10,0,0,292,251,1,north_west,0,162,194
SR01TR,6.04,123.36,FALSE,LEFT,49,-139.26,780,613.1,740.3,1,222.64,732,836.6,546.8,RIGHT,NONE,1,75,1,316,north_west,0,south_east,0,0,0,0,330,282,1,south_west,0,162,195
SR01TR,5.88,147.04,FALSE,LEFT,40,137.01,810,645.1,321,1,232.68,771,854.2,516.1,RIGHT,NONE,1,76,1,378,north_west,0,south_east,0,10,0,0,300,261,1,north_west,0,172,196
SR01TR,5.87,143.24,FALSE,RIGHT,41,-40.29,1048,1051.7,733.2,1,293.69,1008,833.1,546.9,RIGHT,NONE,1,77,1,653,north_west,0,south_east,0,1,0,0,260,220,1,south_east,0,173,197
SR01TR,6.59,149.67,FALSE,LEFT,44,137.95,984,616.5,313.4,1,249.85,941,854.4,528,RIGHT,NONE,1,78,1,578,north_west,0,south_east,0,10,0,0,271,228,1,north_west,0,183,198
SR01TR,6.47,137.73,FALSE,LEFT,47,140.27,713,599.6,336.6,1,237.87,667,841.8,537.9,RIGHT,NONE,1,79,1,274,north_west,0,south_east,0,10,0,0,305,259,1,north_west,0,193,199
SR01TR,6.73,146.35,FALSE,LEFT,46,138.13,714,599.7,345.3,1,252.35,669,843.6,564.1,RIGHT,NONE,1,80,1,305,north_west,0,south_east,0,10,0,0,277,233,1,north_west,0,203,200
SR01TR,5.96,152.74,FALSE,RIGHT,39,-38.88,1097,1063.2,730.5,1,288.13,1059,836.9,547.1,RIGHT,NONE,1,81,1,730,north_west,0,south_east,0,1,0,0,233,195,1,south_east,0,204,201
SR01TR,5.64,131.08,FALSE,LEFT,43,-139.71,936,632.5,707.9,1,242.2,894,842.1,529.5,RIGHT,NONE,1,82,1,496,north_west,0,south_east,0,0,0,0,304,262,1,south_west,0,204,202
SR01TR,6.38,148.32,FALSE,LEFT,43,139.89,1135,616.5,307.6,1,257.62,1093,853.8,507.5,RIGHT,NONE,1,83,1,724,north_west,0,south_east,0,10,0,0,275,233,1,north_west,0,214,203
SR01TR,6.48,132.26,FALSE,LEFT,49,141.12,832,574.5,352.6,1,223.47,784,820.2,550.9,RIGHT,NONE,1,84,1,371,north_west,0,south_east,0,10,0,0,329,281,1,north_west,0,224,204
SR01TR,6.4,152.4,FALSE,LEFT,42,140.56,832,592.2,333.3,1,244.66,791,832.7,531.1,RIGHT,NONE,1,85,1,406,north_west,0,south_east,0,10,0,0,305,264,1,north_west,0,234,205
SR01TR,0.51,46.02,FALSE,RIGHT,11,19.41,1087,609.9,327.5,2,44.05,1077,586.6,335.7,RIGHT,NONE,1,85,1,406,north_west,0,south_east,0,10,0,0,305,264,1,north_west,0,234,205
SR01TR,5.59,143.46,FALSE,RIGHT,39,41.04,826,1054.2,345.3,1,248.65,788,849.1,524,RIGHT,NONE,1,86,1,415,north_west,0,south_east,0,0,0,0,279,241,1,north_east,0,234,206
SR01TR,0.72,37.95,FALSE,UP,19,62.92,1110,1075.5,307.1,2,53.9,1092,1059.5,338.4,RIGHT,NONE,1,86,1,415,north_west,0,south_east,0,0,0,0,279,241,1,north_east,0,234,206
SR01TR,6.58,124.13,FALSE,RIGHT,53,-43.32,737,1071.2,759.2,1,288.82,685,837.4,537.8,RIGHT,NONE,1,87,1,227,north_west,0,south_east,0,1,1,0,376,324,1,south_east,0,235,207
SR01TR,0.85,53.15,FALSE,UP,16,129.53,900,1057,725.1,2,60.25,885,1083.6,757.5,RIGHT,NONE,1,87,1,227,north_west,0,south_east,0,1,1,0,376,324,1,south_east,0,235,207
SR01TR,5.67,131.95,FALSE,RIGHT,43,-42.05,1151,1069.6,729.3,1,268.47,1109,864,542.9,RIGHT,NONE,1,88,1,759,north_west,0,south_east,0,1,0,0,256,214,1,south_east,0,236,208
SR01TR,6.45,153.68,FALSE,LEFT,42,138.2,864,606.2,309.7,1,253.67,823,840.3,519,RIGHT,NONE,1,89,1,438,north_west,0,south_east,0,10,0,0,292,250,1,north_west,0,246,209
SR01TR,5.4,128.62,FALSE,LEFT,42,-142.1,804,628.2,717.3,1,228.85,763,836,554.7,RIGHT,NONE,1,90,1,308,north_west,0,south_east,0,0,0,0,362,321,1,south_west,0,246,210
SR01TR,6.09,135.38,FALSE,LEFT,45,137.61,815,607,327.9,1,231.13,771,825.9,527.7,RIGHT,NONE,1,91,1,380,north_west,0,south_east,0,1,0,0,302,258,1,north_west,0,247,211
SR01TR,5.83,129.66,FALSE,RIGHT,45,43.56,824,1055.6,327,1,247.95,780,850.1,522.6,RIGHT,NONE,1,92,1,429,north_west,0,south_east,0,0,0,0,260,216,1,north_east,0,247,212
SR01TR,0.44,44.13,FALSE,.,10,30.17,1129,1065,321.6,2,40.49,1120,1046.4,332.4,RIGHT,NONE,1,92,1,429,north_west,0,south_east,0,0,0,0,260,216,1,north_east,0,247,212
SR01TR,6.65,151.04,FALSE,LEFT,44,137.85,707,598,338.9,1,234.9,664,837.7,556.1,RIGHT,NONE,1,93,1,264,north_west,0,south_east,0,10,0,0,309,265,1,north_west,0,257,213
SR01TR,0.48,26.53,FALSE,.,18,-17.52,913,620.4,362.8,2,48.51,896,598.2,355.8,RIGHT,NONE,1,93,1,264,north_west,0,south_east,0,10,0,0,309,265,1,north_west,0,257,213
SR01TR,5.9,147.61,FALSE,LEFT,40,136.89,1016,634.1,339.1,1,231.56,977,843.6,535.4,RIGHT,NONE,1,94,1,610,north_west,0,south_east,0,10,1,0,270,231,1,north_west,0,267,214
SR01TR,5.46,139.97,FALSE,RIGHT,39,-38.83,1106,1040,679.5,1,272.48,1068,832.9,512.3,RIGHT,NONE,1,95,1,707,north_west,0,south_east,0,1,0,0,263,225,1,south_east,0,268,215
SR01TR,5.78,128.45,FALSE,UP,45,46.83,1158,1041.1,315.3,1,251.64,1114,848.9,520.4,RIGHT,NONE,1,96,1,756,north_west,0,south_east,0,0,0,0,271,227,1,north_east,0,268,216
SR01TR,0.69,36.38,FALSE,UP,19,56.29,1397,1063.3,300.2,2,53.51,1379,1044.6,328.2,RIGHT,NONE,1,96,1,756,north_west,0,south_east,0,0,0,0,271,227,1,north_east,0,268,216
SR01TR,6.18,137.33,FALSE,RIGHT,45,42.6,1100,1035.5,339.3,1,265.14,1056,814.4,543,RIGHT,NONE,1,97,1,700,north_west,0,south_east,0,0,0,0,260,216,1,north_east,0,268,217
SR01TR,0.39,43.54,FALSE,.,9,154.83,257,817.3,529.5,1,37.64,249,834.5,537.6,RIGHT,NONE,1,98,1,212,north_west,0,south_east,0,0,0,0,407,1,1,south_west,0,268,218
SR01TR,0.3,43.04,FALSE,.,7,-2.35,384,832.2,530.6,2,35.74,378,817.6,530,RIGHT,NONE,1,98,1,212,north_west,0,south_east,0,0,0,0,407,1,1,south_west,0,268,218
SR01TR,5.19,123.66,FALSE,LEFT,42,-138.52,783,642,685.1,3,223.61,742,831.5,516.9,RIGHT,NONE,1,98,1,212,north_west,0,south_east,0,0,0,0,407,1,1,south_west,0,268,218
SR01TR,5.28,120.09,FALSE,LEFT,44,-141,1007,654.6,693.1,1,210.21,964,854.6,530.5,RIGHT,NONE,1,99,1,435,north_west,0,south_east,0,0,0,0,438,395,1,south_west,0,268,219
SR01TR,5.84,135.71,FALSE,RIGHT,43,-37.41,895,1058.8,732,1,257.73,853,832.6,558.1,RIGHT,NONE,1,100,1,365,north_west,0,south_east,0,1,0,0,395,353,1,south_east,0,269,220
SR01TR,6,146.32,FALSE,LEFT,41,136.47,741,647.8,302.3,1,209.15,701,859.2,503.3,RIGHT,NONE,1,101,1,272,north_west,0,south_east,0,10,0,0,338,298,1,north_west,0,279,221
SR01TR,6.21,134.96,FALSE,UP,46,45.06,787,1038.2,308.8,1,247.96,742,825.1,522.6,RIGHT,NONE,1,102,1,386,north_west,0,south_east,0,0,0,0,267,222,1,north_east,0,279,222
SR01TR,6.13,149.58,FALSE,RIGHT,41,-40.69,773,1069.6,698.2,1,296.89,733,842.9,502.5,RIGHT,NONE,1,103,1,350,north_west,0,south_east,0,10,0,0,289,250,1,south_east,0,289,223
SR01TR,6.26,149,FALSE,LEFT,42,135.76,1082,641.4,318.3,1,228.38,1041,859.3,530.7,RIGHT,NONE,1,104,1,661,north_west,0,south_east,0,1,0,0,282,241,1,north_west,0,290,224
SR01TR,5.57,121.16,FALSE,LEFT,46,-138.31,1100,635.7,732.7,1,248.97,1055,838.6,550.9,RIGHT,NONE,1,105,1,640,north_west,0,south_east,0,0,0,0,325,280,1,south_west,0,290,225
SR01TR,5.6,133.23,FALSE,LEFT,42,-141.07,889,623.2,725,1,225.98,848,835.4,552.7,RIGHT,NONE,1,106,1,455,north_west,0,south_east,0,0,1,0,299,258,1,south_west,0,290,226
SR01TR,6.3,143.24,FALSE,LEFT,44,137.46,1128,629.4,336.9,1,231.25,1085,855.1,544.4,RIGHT,NONE,1,107,1,733,north_west,0,south_east,0,1,0,0,265,222,1,north_west,0,291,227
SR01TR,6.35,144.35,FALSE,RIGHT,44,-41.94,730,1053.7,713.5,1,272.16,687,823.4,505.7,RIGHT,NONE,1,108,1,285,north_west,0,south_east,0,1,0,0,313,269,1,south_east,0,292,228
SR01TR,5.71,124.14,FALSE,RIGHT,46,43.83,758,1040.4,365.6,1,237.61,713,840.2,558.2,RIGHT,NONE,1,109,1,364,north_west,0,south_east,0,0,1,0,260,214,1,north_east,0,292,229
SR01TR,0.84,52.7,FALSE,UP,16,66.31,942,1057.8,337.7,2,61.11,927,1041.3,375.3,RIGHT,NONE,1,109,1,364,north_west,0,south_east,0,0,1,0,260,214,1,north_east,0,292,229
SR01TR,6.01,133.52,FALSE,RIGHT,45,42.53,985,1062.3,298.7,1,228.88,941,846.9,496.3,RIGHT,NONE,1,110,1,574,north_west,0,south_east,0,0,0,0,276,232,1,north_east,0,292,230
SR01TR,6.12,127.43,FALSE,UP,48,45.49,1082,1056.7,318.1,1,253.7,1035,848.3,530.3,RIGHT,NONE,1,111,1,711,north_west,0,south_east,0,0,0,0,249,202,1,north_east,0,292,231
SR01TR,5.82,149.28,FALSE,RIGHT,39,-40.38,1092,1048.4,731.8,1,318.56,1054,832.2,546.8,RIGHT,NONE,1,112,1,717,north_west,0,south_east,0,1,0,0,253,215,1,south_east,0,293,232
SR01TR,6.23,129.69,FALSE,UP,48,46.15,667,1037.5,319.4,1,225.89,620,827.9,537.8,RIGHT,NONE,1,113,1,244,north_west,0,south_east,0,0,0,0,289,242,1,north_east,0,293,233
SR01TR,6.19,140.78,FALSE,LEFT,44,139.6,1020,610.4,355.1,1,212.81,977,839.9,550.6,RIGHT,NONE,1,114,1,619,north_west,0,south_east,0,1,0,0,266,223,1,north_west,0,294,234
SR01TR,5.62,119.61,FALSE,LEFT,47,-141.75,871,632.4,705.1,1,230.64,825,847.6,534.9,RIGHT,NONE,1,115,1,396,north_west,0,south_east,0,0,0,0,340,294,1,south_west,0,294,235
SR01TR,6.33,140.71,FALSE,RIGHT,45,44.55,1149,1042.2,310,1,273.62,1105,822.9,526.1,RIGHT,NONE,1,116,1,757,north_west,0,south_east,0,0,0,0,257,213,1,north_east,0,294,236
SR01TR,6.09,138.37,FALSE,LEFT,44,138.02,854,611.5,328.2,1,233.9,811,831.7,526.3,RIGHT,NONE,1,117,1,414,north_west,0,south_east,0,10,0,0,304,262,1,north_west,0,304,237
SR01TR,5.96,138.67,FALSE,LEFT,43,-143.42,1125,582.1,717.2,1,233.4,1083,816,542.9,RIGHT,NONE,1,118,1,698,north_west,0,south_east,0,0,0,0,291,249,1,south_west,0,304,238
SR01TR,5.56,139.04,FALSE,RIGHT,40,43.46,959,1034.5,330.1,1,224.35,920,838.3,516.2,RIGHT,NONE,1,119,1,560,north_west,0,south_east,0,0,0,0,264,225,1,north_east,0,304,239
SR01TR,0.78,39.19,FALSE,UP,20,59.83,1175,1063.7,298.7,2,61.27,1156,1044.5,331.7,RIGHT,NONE,1,119,1,560,north_west,0,south_east,0,0,0,0,264,225,1,north_east,0,304,239
SR01TR,5.94,129.22,FALSE,UP,46,46.6,793,1037.8,321.3,1,230.84,748,839.3,531.4,RIGHT,NONE,2,0,1,373,north_west,0,south_east,0,0,0,0,285,240,1,north_east,0,304,240
SR01TR,6.7,139.58,FALSE,UP,48,45.39,814,1072.9,295,1,277.15,767,844,527.3,RIGHT,NONE,2,1,1,385,north_west,0,south_east,0,0,0,0,295,248,1,north_east,0,304,241
SR01TR,6.34,143.99,FALSE,LEFT,44,137.99,717,602.6,317.7,1,238.68,674,831.6,524,RIGHT,NONE,2,2,1,240,north_west,0,south_east,0,10,0,0,344,301,1,north_west,0,314,242
SR01TR,5.79,123.13,FALSE,LEFT,47,-135,868,643.7,721.5,1,238.14,822,843.2,521.2,RIGHT,NONE,2,3,1,423,north_west,0,south_east,0,0,0,0,311,265,1,south_west,0,314,243
SR01TR,6.16,146.63,FALSE,UP,42,134.8,861,624.4,320,1,245.82,820,835.3,532.6,RIGHT,NONE,2,4,1,473,north_west,0,south_east,0,10,0,0,254,213,1,north_west,0,324,244
SR01TR,5.72,127.17,FALSE,RIGHT,45,44.29,1064,1029.4,327.7,1,228.98,1020,830.3,522.1,RIGHT,NONE,2,5,1,636,north_west,0,south_east,0,0,0,0,295,251,1,north_east,0,324,245
SR01TR,0.57,51.68,FALSE,RIGHT,11,34.55,1290,1054.9,328.4,2,48.29,1280,1032.1,344.1,RIGHT,NONE,2,5,1,636,north_west,0,south_east,0,0,0,0,295,251,1,north_east,0,324,245
SR01TR,5.63,114.86,FALSE,LEFT,49,-138.53,779,631.8,745.3,1,197.12,731,837.6,562.5,RIGHT,NONE,2,6,1,279,north_west,0,south_east,0,0,0,0,366,318,1,south_west,0,324,246
SR01TR,5.9,128.24,FALSE,RIGHT,46,40.87,743,1057.8,332.1,1,252.62,698,841,519.9,RIGHT,NONE,2,7,1,276,north_west,0,south_east,0,0,0,0,334,289,1,north_east,0,324,247
SR01TR,0.4,30.69,FALSE,.,13,81.13,1026,1065.7,328,2,34.36,1014,1062.7,347.2,RIGHT,NONE,2,7,1,276,north_west,0,south_east,0,0,0,0,334,289,1,north_east,0,324,247
SR01TR,6.5,151.25,FALSE,RIGHT,43,42.31,956,1072.6,353.5,1,262.91,914,838.6,566.7,RIGHT,NONE,2,8,1,583,north_west,0,south_east,0,0,0,0,242,200,1,north_east,0,324,248
SR01TR,0.54,41.9,FALSE,RIGHT,13,-2.16,130,841.3,533.5,1,46.97,118,814.9,532.5,RIGHT,NONE,2,9,1,502,north_west,0,south_east,0,0,0,0,256,212,1,north_east,0,324,249
SR01TR,6.47,143.69,FALSE,RIGHT,45,42.74,893,1049.8,343.6,2,259.86,849,819,557.3,RIGHT,NONE,2,9,1,502,north_west,0,south_east,0,0,0,0,256,212,1,north_east,0,324,249
SR01TR,5.7,135.66,FALSE,LEFT,42,135.23,1054,628.3,304.7,1,216.19,1013,824.9,499.9,RIGHT,NONE,2,10,1,649,north_west,0,south_east,0,1,0,0,271,230,1,north_west,0,325,250
SR01TR,0.29,41.3,FALSE,.,7,166.44,1466,615.6,312.9,2,33.54,1460,629.3,316.2,RIGHT,NONE,2,10,1,649,north_west,0,south_east,0,1,0,0,271,230,1,north_west,0,325,250
SR01TR,5.49,140.76,FALSE,LEFT,39,-142.74,852,618.8,701.7,1,253.82,814,831.8,539,RIGHT,NONE,2,11,1,411,north_west,0,south_east,0,0,0,0,308,269,1,south_west,0,325,251
SR01TR,4.52,113.1,FALSE,RIGHT,40,-36.68,646,1027,660.8,1,216.27,607,850.3,528.8,RIGHT,NONE,2,12,1,214,north_west,0,south_east,0,1,0,0,299,260,1,south_east,0,326,252
SR01TR,1.77,60.93,FALSE,DOWN,29,-68.38,811,1055.9,744.1,2,132.2,783,1024,663.2,RIGHT,NONE,2,12,1,214,north_west,0,south_east,0,1,0,0,299,260,1,south_east,0,326,252
SR01TR,5.78,141.06,FALSE,RIGHT,41,-40.75,1053,1056.6,705.1,1,259.3,1013,843,520.3,RIGHT,NONE,2,13,1,657,north_west,0,south_east,0,1,0,0,261,221,1,south_east,0,327,253
SR01TR,5.02,114.1,FALSE,LEFT,44,146.76,1545,839.9,553.5,2,142.42,1502,1044.4,688.2,RIGHT,NONE,2,13,1,657,north_west,0,south_east,0,1,0,0,261,221,1,south_east,0,327,253
SR01TR,6.74,153.09,FALSE,RIGHT,44,42.35,960,1086.6,318.7,1,284.09,917,844.4,539.9,RIGHT,NONE,2,14,1,580,north_west,0,south_east,0,0,0,0,249,206,1,north_east,0,327,254
SR01TR,12.58,331.05,FALSE,DOWN,38,-73,1500,1236.5,901.8,2,521.19,1463,1054.6,304.5,RIGHT,NONE,2,14,1,580,north_west,0,south_east,0,0,0,0,249,206,1,north_east,0,327,254
SR01TR,6.11,129.94,FALSE,LEFT,47,-140.36,892,618.1,733.9,1,256.8,846,847.6,542.8,RIGHT,NONE,2,15,1,464,north_west,0,south_east,0,0,0,0,295,249,1,south_west,0,327,255
SR01TR,0.57,28.62,FALSE,UP,20,122.98,1177,609.4,712.6,2,57.09,1158,624.7,736.3,RIGHT,NONE,2,15,1,464,north_west,0,south_east,0,0,0,0,295,249,1,south_west,0,327,255
SR01TR,4.97,110.38,FALSE,UP,45,59.17,1092,976.8,339.1,1,203.93,1048,853.2,546.6,RIGHT,NONE,2,16,2,721,north_west,0,south_east,0,-1,0,0,2302,2111,0,north_west,1,326,256
SR01TR,7.19,171.18,FALSE,LEFT,42,176.72,1162,613.1,332.5,2,296.63,1121,962.3,352.5,RIGHT,NONE,2,16,2,721,north_west,0,south_east,0,-1,0,0,2302,2111,0,north_west,1,326,256
SR01TR,0.7,3.63,TRUE,LEFT,193,144.07,3159,657.1,323.8,3,1106.53,2967,684.7,343.8,RIGHT,AFTER,2,16,2,721,north_west,0,south_east,0,-1,0,0,2302,2111,0,north_west,1,326,256
SR01TR,.,.,TRUE,DOWN,59,.,3701,.,.,4,1062.35,3643,664.1,332.1,RIGHT,BOTH,2,16,2,721,north_west,0,south_east,0,-1,0,0,2302,2111,0,north_west,1,326,256
SR01TR,6.36,138.28,FALSE,RIGHT,46,44.58,721,1037.2,306.9,1,247.71,676,817,524.1,RIGHT,NONE,2,17,1,330,north_west,0,south_east,0,0,1,0,256,211,1,north_east,0,326,257
SR01TR,5.42,123.13,FALSE,RIGHT,44,-38.36,760,1053.4,702.3,1,250.66,717,846.3,537.9,RIGHT,NONE,2,18,1,294,north_west,0,south_east,0,1,0,0,331,288,1,south_east,0,327,258
SR01TR,6.57,149.34,FALSE,LEFT,44,135.42,1033,608,298.8,1,235.93,990,835.7,523.4,RIGHT,NONE,2,19,1,625,north_west,0,south_east,0,10,0,0,272,229,1,north_west,0,337,259
SR01TR,6.25,133.07,FALSE,UP,47,45.33,1114,1066.3,306.1,1,272.6,1068,852.4,522.5,RIGHT,NONE,2,20,1,732,north_west,0,south_east,0,0,0,0,247,201,1,north_east,0,337,260
SR01TR,5.87,139.86,FALSE,LEFT,42,-139.33,976,622.4,709.5,1,235.79,935,839.6,522.1,RIGHT,NONE,2,21,1,549,north_west,0,south_east,0,0,0,0,291,250,1,south_west,0,337,261
SR01TR,0.27,38.3,FALSE,.,7,153.92,1277,622.9,696.4,2,32.99,1271,634.7,702.2,RIGHT,NONE,2,21,1,549,north_west,0,south_east,0,0,0,0,291,250,1,south_west,0,337,261
SR01TR,6.04,134.31,FALSE,UP,45,45.38,889,1049.8,321,1,274.11,845,843.5,530.3,RIGHT,NONE,2,22,1,478,north_west,0,south_east,0,0,0,0,275,231,1,north_east,0,337,262
SR01TR,5.54,128.87,FALSE,LEFT,43,-137.48,965,629.8,731.7,1,254.81,923,828.9,548,RIGHT,NONE,2,23,1,564,north_west,0,south_east,0,0,0,0,278,236,1,south_west,0,337,263
SR01TR,5.9,133.99,FALSE,RIGHT,44,-38.49,1133,1066.4,715.3,1,252.9,1090,841.2,535.7,RIGHT,NONE,2,24,1,733,north_west,0,south_east,0,10,0,0,265,221,1,south_east,0,347,264
SR01TR,6.19,126.33,FALSE,RIGHT,49,44.74,1032,1063.1,309.6,1,218.92,984,849.2,521.6,RIGHT,NONE,2,25,1,597,north_west,0,south_east,0,0,0,0,313,264,1,north_east,0,347,265
SR01TR,6.17,147.01,FALSE,LEFT,42,135.28,1089,626.2,339.8,1,219.52,1048,839.4,551.4,RIGHT,NONE,2,26,1,663,north_west,0,south_east,0,10,0,0,292,251,1,north_west,0,357,266
SR01TR,0.46,51,FALSE,.,9,172.8,1333,594,338.6,2,43.18,1325,616.2,341.4,RIGHT,NONE,2,26,1,663,north_west,0,south_east,0,10,0,0,292,251,1,north_west,0,357,266
SR01TR,5.9,137.11,FALSE,LEFT,43,135.62,665,630.3,337.9,1,205.76,623,835.1,538.5,RIGHT,NONE,2,27,1,200,north_west,0,south_east,0,1,0,0,345,303,1,north_west,0,358,267
SR01TR,0.55,45.54,FALSE,LEFT,12,162.98,927,589.5,332.2,2,45.77,916,615,340,RIGHT,NONE,2,27,1,200,north_west,0,south_east,0,1,0,0,345,303,1,north_west,0,358,267
SR01TR,6.24,138.59,FALSE,LEFT,45,137.42,940,599.5,341.5,1,239.01,896,822.9,547,RIGHT,NONE,2,28,1,525,north_west,0,south_east,0,10,1,0,284,240,1,north_west,0,368,268
SR01TR,4.18,107.23,FALSE,RIGHT,39,-33.02,740,1002.1,635.4,1,201,702,831.5,524.2,RIGHT,NONE,2,29,2,332,north_west,0,south_east,0,-1,0,0,428,398,0,south_east,1,367,269
SR01TR,2.14,71.3,FALSE,DOWN,30,-59.62,881,1050.1,727.9,2,146.78,852,997.2,637.2,RIGHT,NONE,2,29,2,332,north_west,0,south_east,0,-1,0,0,428,398,0,south_east,1,367,269
SR01TR,6.16,139.93,FALSE,RIGHT,44,-40.05,845,1064.2,736.1,1,261.64,802,834.2,541.8,RIGHT,NONE,2,30,1,416,north_west,0,south_east,0,1,0,0,294,251,1,south_east,0,368,270
SR01TR,6.3,136.95,FALSE,RIGHT,46,-41.96,902,1065.5,734.1,1,258.76,857,836.9,527.7,RIGHT,NONE,2,31,1,485,north_west,0,south_east,0,1,1,0,283,238,1,south_east,0,369,271
SR01TR,5,142.9,FALSE,RIGHT,35,-33.33,802,1032.9,681.3,1,218.3,768,829.4,546.9,RIGHT,NONE,2,32,1,375,north_west,0,south_east,0,1,0,0,292,258,1,south_east,0,370,272
SR01TR,0.48,43.65,FALSE,.,11,-51.02,1019,1054.1,728.4,2,41.34,1009,1039.3,710,RIGHT,NONE,2,32,1,375,north_west,0,south_east,0,1,0,0,292,258,1,south_east,0,370,272
SR01TR,5.7,123.86,FALSE,LEFT,46,-142.89,1046,616.7,684.8,1,226.3,1001,838.2,516.7,RIGHT,NONE,2,33,1,571,north_west,0,south_east,0,0,0,0,342,297,1,south_west,0,370,273
SR01TR,6.15,150.04,FALSE,UP,41,45.81,975,1068.7,310.1,1,285.44,935,860.1,524.7,RIGHT,NONE,2,34,1,590,north_west,0,south_east,0,0,0,0,251,211,1,north_east,0,370,274
SR01TR,6.72,140.02,FALSE,RIGHT,48,43.09,680,1070.6,285.3,1,264,633,831.8,508.9,RIGHT,NONE,2,35,1,247,north_west,0,south_east,0,0,0,0,297,250,1,north_east,0,370,275
SR01TR,5.9,159.38,FALSE,RIGHT,37,-40.51,946,1075.1,724.8,1,305.19,910,856.3,537.1,RIGHT,NONE,2,36,1,551,north_west,0,south_east,0,1,0,0,260,225,1,south_east,0,371,276
SR01TR,5.92,137.64,FALSE,RIGHT,43,40.66,1069,1060.8,331.9,1,230.69,1027,842.6,519.5,RIGHT,NONE,2,37,1,699,north_west,0,south_east,0,0,0,0,236,194,1,north_east,0,371,277
SR01TR,0.73,36.61,FALSE,UP,20,80.8,1285,1051.9,308.7,2,48.87,1266,1046.2,343.9,RIGHT,NONE,2,37,1,699,north_west,0,south_east,0,0,0,0,236,194,1,north_east,0,371,277
SR01TR,6.52,127.76,FALSE,RIGHT,51,44.6,665,1077.8,308.3,1,230.7,615,852.1,531.1,RIGHT,NONE,2,38,1,236,north_west,0,south_east,0,0,0,0,297,246,1,north_east,0,371,278
SR01TR,5.75,130.64,FALSE,RIGHT,44,-43.79,910,1036.1,716.3,1,244.92,867,833.8,521.6,RIGHT,NONE,2,39,1,528,north_west,0,south_east,0,1,0,0,250,207,1,south_east,0,372,279
SR01TR,0.73,52.28,FALSE,RIGHT,14,-0.79,1208,1075.4,716,2,57.44,1195,1039.5,715.5,RIGHT,NONE,2,39,1,528,north_west,0,south_east,0,1,0,0,250,207,1,south_east,0,372,279
SR01TR,6.07,129.05,FALSE,LEFT,47,140.87,718,606.7,328.8,1,202.5,672,835.6,515,RIGHT,NONE,2,40,1,254,north_west,0,south_east,0,10,0,0,343,297,1,north_west,0,382,280
SR01TR,6.27,149.32,FALSE,RIGHT,42,-39.75,1084,1082.5,701.9,1,303.35,1043,847.2,505.6,RIGHT,NONE,2,41,1,680,north_west,0,south_east,0,1,0,0,268,227,1,south_east,0,383,281
SR01TR,6.24,141.76,FALSE,LEFT,44,138.32,876,635,304.1,1,233.04,833,861.4,505.9,RIGHT,NONE,2,42,1,357,north_west,0,south_east,0,10,0,0,385,342,1,north_west,0,393,282
SR01TR,0.2,32.76,FALSE,.,6,27.37,1247,647.5,292.5,2,30.26,1242,639,296.9,RIGHT,NONE,2,42,1,357,north_west,0,south_east,0,10,0,0,385,342,1,north_west,0,393,282
SR01TR,5.13,113.96,FALSE,LEFT,45,-137.63,1097,649.1,701.1,1,232.57,1053,833.6,532.1,RIGHT,NONE,2,43,1,466,north_west,0,south_east,0,-1,0,0,510,465,0,south_west,1,392,283
SR01TR,5.09,141.26,FALSE,LEFT,36,140.86,1156,651.4,357.7,1,223.03,1121,843.1,513.7,RIGHT,NONE,2,44,1,729,north_west,0,south_east,0,10,0,0,294,259,1,north_west,0,402,284
SR01TR,0.4,36.15,FALSE,.,11,116.04,1396,620.2,322.3,2,35.17,1386,628.7,339.7,RIGHT,NONE,2,44,1,729,north_west,0,south_east,0,10,0,0,294,259,1,north_west,0,402,284
SR01TR,5.37,122.12,FALSE,LEFT,44,-139,799,651.8,670.2,1,244.68,756,849.3,498,RIGHT,NONE,2,45,1,302,north_west,0,south_east,0,0,0,0,362,319,1,south_west,0,402,285
SR01TR,5.4,119.95,FALSE,UP,45,47.69,1080,1015,306.9,1,217.91,1036,838.6,501.1,RIGHT,NONE,2,46,1,635,north_west,0,south_east,0,0,0,0,310,266,1,north_east,0,402,286
SR01TR,1.07,48.85,FALSE,RIGHT,22,42.8,1289,1053.1,276.1,2,91.78,1268,1014.7,311.7,RIGHT,NONE,2,46,1,635,north_west,0,south_east,0,0,0,0,310,266,1,north_east,0,402,286
SR01TR,6.18,137.42,FALSE,LEFT,45,139.87,744,624.9,332.2,1,234.35,700,854.7,526.1,RIGHT,NONE,2,47,1,259,north_west,0,south_east,0,10,0,0,352,308,1,north_west,0,412,287
SR01TR,6.12,135.97,FALSE,LEFT,45,135.97,719,608.3,323.6,1,210.55,675,822.3,530.5,RIGHT,NONE,2,48,1,267,north_west,0,south_east,0,10,0,0,317,273,1,north_west,0,422,288
SR01TR,5.79,131.53,FALSE,RIGHT,44,41.73,646,1058.3,323.7,1,239.78,603,848.4,511.1,RIGHT,NONE,2,49,1,220,north_west,0,south_east,0,0,0,0,293,250,1,north_east,0,422,289
SR01TR,0.62,32.65,FALSE,UP,19,48.35,916,1077.9,302.7,2,53.75,898,1057.8,325.3,RIGHT,NONE,2,49,1,220,north_west,0,south_east,0,0,0,0,293,250,1,north_east,0,422,289
SR01TR,6.13,133.19,FALSE,LEFT,46,-143.57,933,608.9,704.6,1,249.1,888,849.2,526.5,RIGHT,NONE,2,50,1,501,north_west,0,south_east,0,0,0,0,298,253,1,south_west,0,422,290
SR01TR,5.49,137.24,FALSE,LEFT,40,-144.67,1021,631.1,655.7,1,268.12,982,849.2,500.6,RIGHT,NONE,2,51,1,605,north_west,0,south_east,0,0,0,0,282,243,1,south_west,0,422,291
SR01TR,6.2,137.89,FALSE,LEFT,45,136.13,1133,647.4,306,1,232.22,1089,864.8,515.2,RIGHT,NONE,2,52,1,706,north_west,0,south_east,0,10,0,0,292,248,1,north_west,0,432,292
SR01TR,5.36,119.05,FALSE,LEFT,45,-138.07,921,645.8,722.8,1,225.98,877,840.1,547.4,RIGHT,NONE,2,53,1,449,north_west,0,south_east,0,0,0,0,336,292,1,south_west,0,432,293
SR01TR,0.88,62.7,FALSE,LEFT,14,-177.09,1175,600.2,727.4,2,67.34,1162,643.2,725.2,RIGHT,NONE,2,53,1,449,north_west,0,south_east,0,0,0,0,336,292,1,south_west,0,432,293
SR01TR,6.29,139.74,FALSE,LEFT,45,136.55,676,613.5,337.8,1,207.33,632,835.6,548.4,RIGHT,NONE,2,54,1,216,north_west,0,south_east,0,10,0,0,339,295,1,north_west,0,442,294
SR01TR,6.17,140.3,FALSE,RIGHT,44,41.27,864,1042.7,351,1,258.86,821,817.2,549.3,RIGHT,NONE,2,55,1,467,north_west,0,south_east,0,0,0,0,263,220,1,north_east,0,442,295
SR01TR,5.93,131.83,FALSE,LEFT,45,-140.75,793,622,733.1,1,249.43,749,846.2,549,RIGHT,NONE,2,56,1,360,north_west,0,south_east,0,0,1,0,302,258,1,south_west,0,442,296
SR01TR,0.33,41.01,FALSE,.,8,-178.23,1071,606.1,728.4,2,34.9,1064,622.2,727.9,RIGHT,NONE,2,56,1,360,north_west,0,south_east,0,0,1,0,302,258,1,south_west,0,442,296
SR01TR,5.47,133.37,FALSE,LEFT,41,-138.06,888,664.7,710.3,1,248.9,848,862.8,531.6,RIGHT,NONE,2,57,1,466,north_west,0,south_east,0,0,0,0,290,249,1,south_west,0,442,297
SR01TR,5.62,133.92,FALSE,RIGHT,42,-44.04,1111,1044.7,742.6,1,290.5,1070,847.4,550.8,RIGHT,NONE,2,58,1,695,north_west,0,south_east,0,1,0,0,280,239,1,south_east,0,443,298
SR01TR,0.52,52.48,FALSE,RIGHT,10,-3.32,1533,1074.2,734.6,2,47.51,1524,1048.5,733.1,RIGHT,NONE,2,58,1,695,north_west,0,south_east,0,1,0,0,280,239,1,south_east,0,443,298
SR01TR,5.57,139.27,FALSE,RIGHT,40,-37.07,674,1066.3,682.8,1,258.79,635,849.6,518.6,RIGHT,NONE,2,59,1,244,north_west,0,south_east,0,1,0,0,296,257,1,south_east,0,444,299
SR01TR,5.09,113.06,FALSE,LEFT,45,-142.06,1169,656.8,678.4,1,257.05,1125,852.2,525.6,RIGHT,NONE,2,60,1,694,north_west,0,south_east,0,0,0,0,340,296,1,south_west,0,444,300
SR01TR,5.94,141.41,FALSE,RIGHT,42,-38.05,664,1075.3,684.3,1,281.29,623,847.3,505.3,RIGHT,NONE,2,61,1,222,north_west,0,south_east,0,1,0,0,321,280,1,south_east,0,445,301
SR01TR,5.92,137.7,FALSE,UP,43,134,937,649.7,323.4,1,230.6,895,849.6,530.6,RIGHT,NONE,2,62,1,501,north_west,0,south_east,0,10,0,0,301,259,1,north_west,0,455,302
SR01TR,5.75,143.85,FALSE,LEFT,40,139.2,1003,637.6,346.6,1,215.75,964,849.3,529.5,RIGHT,NONE,2,63,1,543,north_west,0,south_east,0,10,0,0,326,287,1,north_west,0,465,303
SR01TR,0.28,23,FALSE,.,12,107.76,1246,616,341.3,2,29.38,1235,620.1,354.1,RIGHT,NONE,2,63,1,543,north_west,0,south_east,0,10,0,0,326,287,1,north_west,0,465,303
SR01TR,4.83,104.99,FALSE,LEFT,46,140.45,1186,664.6,404.7,1,170.48,1141,845.4,554.3,RIGHT,NONE,2,64,2,734,north_west,0,south_east,0,-1,0,0,563,545,0,north_west,1,464,304
SR01TR,1.23,64.83,FALSE,UP,19,113.4,1418,633.7,342.4,2,81.96,1400,657.5,397.4,RIGHT,NONE,2,64,2,734,north_west,0,south_east,0,-1,0,0,563,545,0,north_west,1,464,304
SR01TR,5.84,124.22,FALSE,UP,47,46.84,972,1033.9,351.3,1,193.67,926,839.8,558.7,RIGHT,NONE,2,65,1,527,north_west,0,south_east,0,0,0,0,311,265,1,north_east,0,464,305
SR01TR,5.69,132.28,FALSE,RIGHT,43,-36.95,810,1059.3,700.3,1,253.71,768,837.7,533.1,RIGHT,NONE,2,66,1,370,north_west,0,south_east,0,1,0,0,305,263,1,south_east,0,465,306
SR01TR,0.47,42.78,FALSE,.,11,-103.28,1049,1058.3,730.4,2,43.02,1039,1063.6,707.8,RIGHT,NONE,2,66,1,370,north_west,0,south_east,0,1,0,0,305,263,1,south_east,0,465,306
SR01TR,4.94,120.53,FALSE,RIGHT,41,-39.58,810,1044.8,676.7,1,243.29,770,859.3,522.9,RIGHT,NONE,2,67,1,385,north_west,0,south_east,0,1,0,0,295,254,1,south_east,0,466,307
SR01TR,0.69,36.09,FALSE,DOWN,19,-51.49,990,1067.9,704.1,2,62.26,972,1047,677.7,RIGHT,NONE,2,67,1,385,north_west,0,south_east,0,1,0,0,295,254,1,south_east,0,466,307
SR01TR,5.85,129.91,FALSE,RIGHT,45,44.77,985,1054.6,293.3,1,249.82,941,852.7,493.6,RIGHT,NONE,2,68,1,581,north_west,0,south_east,0,0,0,0,268,223,1,north_east,0,466,308
SR01TR,6.03,122.97,FALSE,LEFT,49,138.23,1125,620.2,334.1,1,203.62,1077,838.6,529.4,RIGHT,NONE,2,69,1,712,north_west,0,south_east,0,10,0,0,292,244,1,north_west,0,476,309
SR01TR,6.06,137.77,FALSE,LEFT,44,135.91,978,620.9,326.7,1,230.18,935,832.5,531.9,RIGHT,NONE,2,70,1,565,north_west,0,south_east,0,10,0,0,292,249,1,north_west,0,486,310
SR01TR,6.21,141.2,FALSE,LEFT,44,136.96,799,616.6,331,1,229.13,756,837.5,537.3,RIGHT,NONE,2,71,1,382,north_west,0,south_east,0,1,0,0,283,239,1,north_west,0,487,311
SR01TR,5.98,139.17,FALSE,RIGHT,43,-41.97,1174,1053.7,724.8,1,291.19,1132,836.8,528.9,RIGHT,NONE,2,72,1,749,north_west,0,south_east,0,10,0,0,292,250,1,south_east,0,497,312
SR01TR,5.25,128.12,FALSE,RIGHT,41,-40.23,1003,1052.2,693,1,244.3,963,856.7,527.1,RIGHT,NONE,2,73,1,576,north_west,0,south_east,0,1,0,0,293,253,1,south_east,0,498,313
SR01TR,0.66,34.95,FALSE,DOWN,19,-51.23,1206,1078.4,703.9,2,61.2,1188,1058,678.4,RIGHT,NONE,2,73,1,576,north_west,0,south_east,0,1,0,0,293,253,1,south_east,0,498,313
SR01TR,5.71,124.09,FALSE,LEFT,46,-141.81,871,630.5,691.3,1,223.28,826,849.2,518.7,RIGHT,NONE,2,74,1,377,north_west,0,south_east,0,0,0,0,360,315,1,south_west,0,498,314
SR01TR,5.53,134.87,FALSE,RIGHT,41,-36.36,1023,1066.5,698.7,1,259.13,983,849.4,538.4,RIGHT,NONE,2,75,1,654,north_west,0,south_east,0,1,0,0,248,208,1,south_east,0,499,315
SR01TR,0.54,48.77,FALSE,RIGHT,11,-25.75,1313,1089.9,722.4,2,46.45,1303,1066.2,710.9,RIGHT,NONE,2,75,1,654,north_west,0,south_east,0,1,0,0,248,208,1,south_east,0,499,315
SR01TR,5.46,118.62,FALSE,LEFT,46,-140.59,978,657.1,698.2,1,228.76,933,862.4,528.8,RIGHT,NONE,2,76,1,419,north_west,0,south_east,0,0,0,0,425,380,1,south_west,0,499,316
SR01TR,4.97,121.23,FALSE,LEFT,41,-136.68,1062,664.1,686.9,1,241.79,1022,840.2,520.3,RIGHT,NONE,2,77,1,646,north_west,0,south_east,0,0,0,0,281,241,1,south_west,0,499,317
SR01TR,1.05,47.55,FALSE,LEFT,22,-179.33,1269,610.7,694.7,2,92.81,1248,661.9,694.1,RIGHT,NONE,2,77,1,646,north_west,0,south_east,0,0,0,0,281,241,1,south_west,0,499,317
SR01TR,5.38,119.65,FALSE,RIGHT,45,-39.17,754,1039.2,704.4,1,260.55,710,835.7,538.1,RIGHT,NONE,2,78,1,213,north_west,0,south_east,0,1,0,0,407,363,1,south_east,0,500,318
SR01TR,6.18,143.71,FALSE,RIGHT,43,-37.11,1092,1078.4,700.2,1,267.98,1050,837.9,517.7,RIGHT,NONE,2,79,1,682,north_west,0,south_east,0,10,0,0,281,239,1,south_east,0,510,319
SR01TR,5.3,147.14,FALSE,LEFT,36,-140.2,1060,644.9,694,1,259.84,1025,843.1,528.2,RIGHT,NONE,2,80,1,554,north_west,0,south_east,0,0,0,0,370,336,1,south_west,0,510,320
SR01TR,0.74,52.53,FALSE,LEFT,14,179.84,1473,619.7,699.8,2,56.81,1460,655.7,699.9,RIGHT,NONE,2,80,1,554,north_west,0,south_east,0,0,0,0,370,336,1,south_west,0,510,320
SR01TR,5.48,133.74,FALSE,RIGHT,41,-42.37,1017,1047,701.4,1,260.92,977,849.5,520.7,RIGHT,NONE,2,81,1,566,north_west,0,south_east,0,1,0,0,331,291,1,south_east,0,511,321
SR01TR,0.61,32.2,FALSE,DOWN,19,-57.1,1281,1069.7,717,2,58.86,1263,1053.4,691.7,RIGHT,NONE,2,81,1,566,north_west,0,south_east,0,1,0,0,331,291,1,south_east,0,511,321
SR01TR,5.48,124.46,FALSE,RIGHT,44,-43.61,1046,1026.8,720.9,1,272.36,1003,833.5,536,RIGHT,NONE,2,82,1,439,north_west,0,south_east,0,1,1,0,471,428,1,south_east,0,512,322
SR01TR,0.75,53.45,FALSE,RIGHT,14,-0.62,1297,1069.6,715.5,2,58.3,1284,1032.9,715.1,RIGHT,NONE,2,82,1,439,north_west,0,south_east,0,1,1,0,471,428,1,south_east,0,512,322
SR01TR,0.26,37.44,FALSE,.,7,-2.25,530,848.3,535.6,1,34.2,524,835.6,535.1,RIGHT,NONE,2,83,1,549,north_west,0,south_east,0,0,0,0,365,322,1,south_west,0,512,323
SR01TR,5.85,133.06,FALSE,LEFT,44,-143.11,1044,616.9,728.4,2,234.38,1001,845.4,556,RIGHT,NONE,2,83,1,549,north_west,0,south_east,0,0,0,0,365,322,1,south_west,0,512,323
SR01TR,6.24,132.85,FALSE,RIGHT,47,-44.86,1015,1064.4,734.6,1,301.99,969,848.4,518.8,RIGHT,NONE,2,84,1,591,north_west,0,south_east,0,1,0,0,289,242,1,south_east,0,513,324
SR01TR,5.78,131.42,FALSE,LEFT,44,-141.63,826,625.5,710.3,1,258.95,783,846.5,534.6,RIGHT,NONE,2,85,1,323,north_west,0,south_east,0,0,0,0,368,325,1,south_west,0,513,325
SR01TR,0.43,43.27,FALSE,.,10,-179.46,1070,611.6,709.9,2,40.62,1061,632.8,709.7,RIGHT,NONE,2,85,1,323,north_west,0,south_east,0,0,0,0,368,325,1,south_west,0,513,325
SR01TR,5.56,111.27,FALSE,LEFT,50,-143.14,985,637.1,696.2,1,265.17,936,854.1,533,RIGHT,NONE,2,86,1,569,north_west,0,south_east,0,0,0,0,280,231,1,south_west,0,513,326
SR01TR,5.78,131.26,FALSE,RIGHT,44,-41.74,682,1058.8,730.2,1,251.88,639,848.5,541.6,RIGHT,NONE,2,87,1,256,north_west,0,south_east,0,10,0,0,292,249,1,south_east,0,523,327
SR01TR,0.43,47.87,FALSE,.,9,-27.75,1037,1075.7,723.5,2,42.78,1029,1057,713.6,RIGHT,NONE,2,87,1,256,north_west,0,south_east,0,10,0,0,292,249,1,south_east,0,523,327
SR01TR,5.83,138.85,FALSE,RIGHT,42,42.43,990,1055.4,320.9,1,236.32,949,846.2,512.3,RIGHT,NONE,2,88,1,553,north_west,0,south_east,0,0,0,0,303,262,1,north_east,0,523,328
SR01TR,6.02,140.1,FALSE,LEFT,43,137.08,978,611.5,343.6,1,209.01,936,826.1,543.4,RIGHT,NONE,2,89,1,537,north_west,0,south_east,0,10,0,0,307,265,1,north_west,0,533,329
SR01TR,0.3,42.68,FALSE,.,7,165.27,1286,591.4,333,2,35.31,1280,605.5,336.7,RIGHT,NONE,2,89,1,537,north_west,0,south_east,0,10,0,0,307,265,1,north_west,0,533,329
SR01TR,6.1,145.33,FALSE,RIGHT,42,-41.32,801,1043.5,747.1,1,306.79,760,819.8,549.4,RIGHT,NONE,2,90,1,272,north_west,0,south_east,0,1,0,0,395,353,1,south_east,0,534,330
SR01TR,0.32,35.05,FALSE,.,9,-174.48,1208,1033,748.6,2,34.42,1200,1048.4,747.1,RIGHT,NONE,2,90,1,272,north_west,0,south_east,0,1,0,0,395,353,1,south_east,0,534,330
SR01TR,5.31,120.78,FALSE,LEFT,44,-141.02,850,655.8,665,1,219.47,807,857,501.7,RIGHT,NONE,2,91,1,384,north_west,0,south_east,0,0,0,0,332,289,1,south_west,0,534,331
SR01TR,5.22,111.05,FALSE,RIGHT,47,42.3,700,1033.1,357.4,1,180.26,654,845.5,528.3,RIGHT,NONE,2,92,1,281,north_west,0,south_east,0,0,0,0,298,252,1,north_east,0,534,332
SR01TR,0.93,49.09,FALSE,UP,19,54.77,833,1058.2,325.3,2,73.26,815,1032,362.4,RIGHT,NONE,2,92,1,281,north_west,0,south_east,0,0,0,0,298,252,1,north_east,0,534,332
SR01TR,5.87,130.39,FALSE,LEFT,45,138.54,861,634.1,334.7,1,201.37,817,847.8,523.7,RIGHT,NONE,2,93,1,442,north_west,0,south_east,0,10,0,0,285,240,1,north_west,0,544,333
SR01TR,6.02,128.08,FALSE,LEFT,47,-135.46,1145,627.5,751.9,1,235.05,1099,836.9,544.8,RIGHT,NONE,2,94,1,724,north_west,0,south_east,0,0,1,0,286,240,1,south_west,0,544,334
SR01TR,5.98,127.18,FALSE,UP,47,46.03,991,1037.4,331,1,254.48,945,835.7,540.5,RIGHT,NONE,2,95,1,593,north_west,0,south_east,0,0,0,0,263,217,1,north_east,0,544,335
SR01TR,6.13,139.43,FALSE,LEFT,44,137.67,955,619.6,320.3,1,239.27,912,840,521.3,RIGHT,NONE,2,96,1,537,north_west,0,south_east,0,10,0,0,281,237,1,north_west,0,554,336
SR01TR,6.11,145.49,FALSE,RIGHT,42,44.18,957,1065.2,298.4,1,264.24,916,852,505.8,RIGHT,NONE,2,97,1,592,north_west,0,south_east,0,0,0,0,244,202,1,north_east,0,554,337
SR01TR,5.8,128.84,FALSE,UP,45,45.24,1003,1041.4,333.4,1,259.4,959,843,533.7,RIGHT,NONE,2,98,1,609,north_west,0,south_east,0,0,0,0,258,215,1,north_east,0,554,338
SR01TR,5.58,143.02,FALSE,RIGHT,39,-41.33,1014,1054.7,714.5,1,263.77,976,850.5,534.2,RIGHT,NONE,2,99,1,618,north_west,0,south_east,0,1,0,0,275,237,1,south_east,0,555,339
SR01TR,5.48,133.75,FALSE,LEFT,41,-147.61,1074,626.3,654.2,1,269.3,1034,851.8,510.7,RIGHT,NONE,2,100,1,625,north_west,0,south_east,0,0,0,0,315,274,1,south_west,0,555,340
SR01TR,5.49,152.61,FALSE,LEFT,36,136.29,1044,637.3,348.9,1,225.3,1009,830.3,533.6,RIGHT,NONE,2,101,1,641,north_west,0,south_east,0,10,0,0,267,232,1,north_west,0,565,341
SR01TR,0.4,49.85,FALSE,.,8,172.61,1279,597.2,327.8,2,40.75,1272,616.5,330.3,RIGHT,NONE,2,101,1,641,north_west,0,south_east,0,10,0,0,267,232,1,north_west,0,565,341
SR01TR,5.97,149.15,FALSE,RIGHT,40,-38.93,1037,1059.2,722.9,1,287.17,998,832.7,539.4,RIGHT,NONE,2,102,1,648,north_west,0,south_east,0,1,0,0,255,215,1,south_east,0,566,342
SR01TR,0.42,46.72,FALSE,.,9,-178.9,1327,1033.8,720.8,2,40.45,1319,1054.4,720.4,RIGHT,NONE,2,102,1,648,north_west,0,south_east,0,1,0,0,255,215,1,south_east,0,566,342
SR01TR,5.07,144.95,FALSE,RIGHT,35,-35.12,1173,1055.9,678.6,1,257.56,1139,853.6,535.9,RIGHT,NONE,2,103,1,789,north_west,0,south_east,0,10,0,0,251,217,1,south_east,0,576,343
SR01TR,0.26,37.12,FALSE,.,7,-14.96,1411,1073.1,687.6,2,31.04,1405,1060.8,684.3,RIGHT,NONE,2,103,1,789,north_west,0,south_east,0,10,0,0,251,217,1,south_east,0,576,343
SR01TR,6.15,133.66,FALSE,RIGHT,46,-42.65,750,1060.9,738.1,1,258.79,705,840.2,534,RIGHT,NONE,2,104,1,348,north_west,0,south_east,0,1,0,0,268,223,1,south_east,0,577,344
SR01TR,6.24,138.67,FALSE,LEFT,45,-140.98,886,609.5,724.7,1,265.72,842,846.1,532.2,RIGHT,NONE,2,105,1,473,north_west,0,south_east,0,0,0,0,279,235,1,south_west,0,577,345
SR01TR,5.72,132.95,FALSE,LEFT,43,-141.9,1147,633.9,681.2,1,223.77,1105,853,508.7,RIGHT,NONE,2,106,1,716,north_west,0,south_east,0,0,0,0,296,254,1,south_west,0,577,346
SR01TR,6.13,149.62,FALSE,RIGHT,41,43.49,1164,1064.3,305.3,1,278.53,1124,847.8,510.7,RIGHT,NONE,2,107,1,779,north_west,0,south_east,0,0,0,0,251,211,1,north_east,0,577,347
SR01TR,6.43,139.89,FALSE,UP,46,47.12,896,1039.2,302.1,1,261.4,851,826.4,531.5,RIGHT,NONE,2,108,1,504,north_west,0,south_east,0,0,1,0,258,213,1,north_east,0,577,348
SR01TR,6.12,145.65,FALSE,LEFT,42,137.31,1144,643.2,311.5,1,224.37,1103,861.7,513.3,RIGHT,NONE,2,109,1,733,north_west,0,south_east,0,10,0,0,276,235,1,north_west,0,587,349
SR01TR,6.26,145.51,FALSE,LEFT,43,138.15,731,629,342.1,1,237.93,689,855.5,545.4,RIGHT,NONE,2,110,1,269,north_west,0,south_east,0,10,0,0,339,297,1,north_west,0,597,350
SR01TR,6.09,132.49,FALSE,UP,46,45.37,979,1037.5,308.5,1,269.35,934,829.4,519.5,RIGHT,NONE,2,111,1,593,north_west,0,south_east,0,0,0,0,252,207,1,north_east,0,597,351
SR01TR,5.87,127.58,FALSE,RIGHT,46,43.93,663,1057,329.8,1,218.88,618,851.6,527.9,RIGHT,NONE,2,112,1,226,north_west,0,south_east,0,0,0,0,302,257,1,north_east,0,597,352
SR01TR,5.73,150.88,FALSE,LEFT,38,-143.67,1034,612.4,726.3,1,262.95,997,837.8,559.7,RIGHT,NONE,2,113,1,624,north_west,0,south_east,0,0,0,0,275,238,1,south_west,0,597,353
SR01TR,5.93,131.81,FALSE,LEFT,45,-140.34,740,637.3,725.9,1,243.41,696,859.9,540.4,RIGHT,NONE,2,114,1,246,north_west,0,south_east,0,0,0,0,365,321,1,south_west,0,597,354
SR01TR,0.69,49.58,FALSE,RIGHT,14,38.75,1178,669.6,710.1,2,52.84,1165,643.1,731.5,RIGHT,NONE,2,114,1,246,north_west,0,south_east,0,0,0,0,365,321,1,south_west,0,597,354
SR01TR,1.72,85.94,FALSE,RIGHT,20,31.73,1235,751.6,613.7,3,94.34,1216,680.4,657.9,RIGHT,NONE,2,114,1,246,north_west,0,south_east,0,0,0,0,365,321,1,south_west,0,597,354
SR01TR,6.3,143.27,FALSE,RIGHT,44,42.48,804,1068,315.8,1,259.53,761,841.8,522.9,RIGHT,NONE,2,115,1,398,north_west,0,south_east,0,0,0,0,273,230,1,north_east,0,597,355
SR01TR,6.37,155.44,FALSE,LEFT,41,138.14,1143,622.5,335.7,1,255.25,1103,853.2,542.8,RIGHT,NONE,2,116,1,735,north_west,0,south_east,0,10,0,0,274,234,1,north_west,0,607,356
SR01TR,5.22,118.57,FALSE,LEFT,44,-139.43,976,642.3,707,1,232.23,933,835.5,540.9,RIGHT,NONE,2,117,1,476,north_west,0,south_east,0,0,0,0,366,323,1,south_west,0,607,357
SR01TR,0.42,46.61,FALSE,.,9,-154.17,1293,623.8,711.9,2,42.44,1285,642.3,702.9,RIGHT,NONE,2,117,1,476,north_west,0,south_east,0,0,0,0,366,323,1,south_west,0,607,357
SR01TR,5.97,145.56,FALSE,LEFT,41,138.76,1217,636.2,342.1,1,235.67,1177,854.3,533.5,RIGHT,NONE,2,118,1,788,north_west,0,south_east,0,10,0,0,294,253,1,north_west,0,617,358
SR01TR,6.38,148.27,FALSE,LEFT,43,140.14,1058,586.3,330.7,1,234.83,1016,824.4,529.7,RIGHT,NONE,2,119,1,313,north_west,0,south_east,0,-1,0,0,612,570,0,north_west,1,616,359
SR01TR,0.2,32.58,FALSE,.,6,165.99,398,842.7,521.1,1,29.01,393,851.9,523.4,RIGHT,NONE,3,0,1,473,north_west,0,south_east,0,0,0,0,376,331,1,south_west,0,616,360
SR01TR,6.11,135.85,FALSE,LEFT,45,-138.67,981,628.4,700,2,237.6,937,852.2,502.6,RIGHT,NONE,3,0,1,473,north_west,0,south_east,0,0,0,0,376,331,1,south_west,0,616,360
SR01TR,0.65,49.82,FALSE,UP,13,72.56,1182,640.5,680.7,3,53.01,1170,631,711.1,RIGHT,NONE,3,0,1,473,north_west,0,south_east,0,0,0,0,376,331,1,south_west,0,616,360
SR01TR,6.14,139.52,FALSE,UP,44,45.96,1068,1058.8,313,1,276.54,1025,851.2,527.7,RIGHT,NONE,3,1,1,664,north_west,0,south_east,0,0,0,0,269,226,1,north_east,0,616,361
SR01TR,5.75,127.84,FALSE,LEFT,45,-138.09,978,636.4,713.1,1,228.82,934,845.1,525,RIGHT,NONE,3,2,1,554,north_west,0,south_east,0,0,0,0,292,247,1,south_west,0,616,362
SR01TR,5.27,128.53,FALSE,LEFT,41,135.28,971,659.8,364.5,1,216.79,931,841.6,544.9,RIGHT,NONE,3,3,1,546,north_west,0,south_east,0,10,0,0,295,254,1,north_west,0,626,363
SR01TR,0.86,61.1,FALSE,LEFT,14,158.13,1198,609.5,361.2,2,65.97,1185,648.2,376.7,RIGHT,NONE,3,3,1,546,north_west,0,south_east,0,10,0,0,295,254,1,north_west,0,626,363
SR01TR,6.66,144.81,FALSE,UP,46,133.34,708,609.6,304.2,1,232.49,663,832,540.4,RIGHT,NONE,3,4,1,269,north_west,0,south_east,0,10,0,0,307,262,1,north_west,0,636,364
SR01TR,0.66,54.84,FALSE,RIGHT,12,-42.38,874,633,331.9,2,54.01,863,609.3,310.3,RIGHT,NONE,3,4,1,269,north_west,0,south_east,0,10,0,0,307,262,1,north_west,0,636,364
SR01TR,6.19,140.79,FALSE,RIGHT,44,43.8,809,1055.4,326.7,1,269.27,766,838.1,535.3,RIGHT,NONE,3,5,1,419,north_west,0,south_east,0,0,0,0,257,214,1,north_east,0,636,365
SR01TR,5.93,144.6,FALSE,LEFT,41,139.14,1149,618.8,355.6,1,248.95,1109,836.7,544.5,RIGHT,NONE,3,6,1,770,north_west,0,south_east,0,10,0,0,244,204,1,north_west,0,646,366
SR01TR,0.38,37.57,FALSE,.,10,78.03,1403,616.4,341.8,2,37.45,1394,612.6,359.7,RIGHT,NONE,3,6,1,770,north_west,0,south_east,0,10,0,0,244,204,1,north_west,0,646,366
SR01TR,5.7,118.72,FALSE,LEFT,48,-141.03,773,617.7,727,1,222.82,726,833.9,551.2,RIGHT,NONE,3,7,1,262,north_west,0,south_east,0,0,0,0,377,330,1,south_west,0,646,367
SR01TR,0.44,44.15,FALSE,.,10,179.21,1015,590.8,731.2,2,41.03,1006,612.5,731.5,RIGHT,NONE,3,7,1,262,north_west,0,south_east,0,0,0,0,377,330,1,south_west,0,646,367
SR01TR,5.33,161.48,FALSE,RIGHT,33,40.92,944,1041.5,364.1,1,268.2,912,845.8,533.9,RIGHT,NONE,3,8,1,551,north_west,0,south_east,0,0,0,0,259,227,1,north_east,0,646,368
SR01TR,5.78,137.54,FALSE,LEFT,42,136.43,912,622.2,320.6,1,238.24,871,825.6,514.3,RIGHT,NONE,3,9,1,504,north_west,0,south_east,0,10,0,0,273,232,1,north_west,0,656,369
SR01TR,5.82,135.36,FALSE,RIGHT,43,-41.08,1040,1033.2,732,1,269.88,998,819.3,544.6,RIGHT,NONE,3,10,1,619,north_west,0,south_east,0,10,0,0,287,244,1,south_east,0,666,370
SR01TR,6.11,132.9,FALSE,LEFT,46,136.27,812,638.1,335.3,1,215.46,767,852.8,541.1,RIGHT,NONE,3,11,1,423,north_west,0,south_east,0,10,0,0,268,223,1,north_west,0,676,371
SR01TR,6.07,141.16,FALSE,RIGHT,43,-37.97,1050,1065.5,723.9,1,279.37,1008,832,540.9,RIGHT,NONE,3,12,1,661,north_west,0,south_east,0,1,0,0,256,213,1,south_east,0,677,372
SR01TR,0.34,42.5,FALSE,.,8,-175.21,1286,1037.1,719.3,2,35.67,1279,1053.7,717.9,RIGHT,NONE,3,12,1,661,north_west,0,south_east,0,1,0,0,256,213,1,south_east,0,677,372
SR01TR,5.41,142.27,FALSE,RIGHT,38,40.87,965,1036.8,359.8,1,242.78,928,838.1,531.9,RIGHT,NONE,3,13,1,585,north_west,0,south_east,0,0,0,0,245,209,1,north_east,0,677,373
SR01TR,0.45,45.42,FALSE,.,10,27.17,1264,1064.9,347.3,2,42.46,1255,1045.2,357.4,RIGHT,NONE,3,13,1,585,north_west,0,south_east,0,0,0,0,245,209,1,north_east,0,677,373
SR01TR,6.06,134.64,FALSE,RIGHT,45,-42.01,1085,1060.9,764.9,1,252.96,1041,841.2,565.8,RIGHT,NONE,3,14,1,714,north_west,0,south_east,0,1,0,0,250,206,1,south_east,0,678,374
SR01TR,5.15,160.95,FALSE,RIGHT,32,40.37,922,1037.5,349.4,1,269.11,891,846.8,511.7,RIGHT,NONE,3,15,1,524,north_west,0,south_east,0,0,0,0,265,234,1,north_east,0,678,375
SR01TR,5.46,121.43,FALSE,RIGHT,45,-44.93,750,1033,738,1,245.65,706,844.4,548.7,RIGHT,NONE,3,16,1,200,north_west,0,south_east,0,10,0,0,415,371,1,south_east,0,688,376
SR01TR,0.51,51.13,FALSE,RIGHT,10,-12.34,949,1061.9,740.5,2,45.92,940,1037.4,735.1,RIGHT,NONE,3,16,1,200,north_west,0,south_east,0,10,0,0,415,371,1,south_east,0,688,376
SR01TR,5.95,132.22,FALSE,UP,45,45.94,922,1044.7,318.5,1,262.25,878,843.6,526.5,RIGHT,NONE,3,17,1,541,north_west,0,south_east,0,0,1,0,247,202,1,north_east,0,688,377
SR01TR,6.42,142.63,FALSE,LEFT,45,137.99,706,612.3,332.6,1,240.46,662,844.3,541.8,RIGHT,NONE,3,18,1,247,north_west,0,south_east,0,10,0,0,328,284,1,north_west,0,698,378
SR01TR,5.62,130.8,FALSE,RIGHT,43,-42.33,759,1038,712.4,1,236.55,717,835.3,527,RIGHT,NONE,3,19,1,353,north_west,0,south_east,0,1,0,0,273,231,1,south_east,0,699,379
SR01TR,5.42,112.84,FALSE,LEFT,48,-140.38,868,639.6,700.9,1,244.72,821,843,532,RIGHT,NONE,3,20,1,374,north_west,0,south_east,0,0,0,0,359,312,1,south_west,0,699,380
SR01TR,6.55,133.75,FALSE,RIGHT,49,44.4,647,1072.3,303.8,1,257.16,599,844.5,527.1,RIGHT,NONE,3,21,1,220,north_west,0,south_east,0,0,0,0,293,245,1,north_east,0,699,381
SR01TR,6.36,138.26,FALSE,RIGHT,46,44.28,790,1057.3,317.7,1,255.74,745,836,533.7,RIGHT,NONE,3,22,1,387,north_west,0,south_east,0,0,0,0,269,224,1,north_east,0,699,382
SR01TR,5.78,134.33,FALSE,RIGHT,43,-38.04,1162,1071.3,718.4,1,259.46,1120,849.3,544,RIGHT,NONE,3,23,1,737,north_west,0,south_east,0,1,0,0,289,247,1,south_east,0,700,383
SR01TR,0.34,37.6,FALSE,.,9,-156.32,1481,1056.1,717,2,35.41,1473,1071.3,710.3,RIGHT,NONE,3,23,1,737,north_west,0,south_east,0,1,0,0,289,247,1,south_east,0,700,383
SR01TR,6.48,137.95,FALSE,UP,47,45.34,957,1059,315.4,1,257.48,911,837.3,540,RIGHT,NONE,3,24,1,572,north_west,0,south_east,0,0,0,0,251,205,1,north_east,0,700,384
SR01TR,6.42,142.73,FALSE,LEFT,45,140.58,1176,598.3,338.7,1,237.45,1132,839.7,537.1,RIGHT,NONE,3,25,1,744,north_west,0,south_east,0,10,0,0,299,254,1,north_west,0,710,385
SR01TR,7.19,135.59,FALSE,UP,53,45.86,734,1059.9,289.6,1,241.76,682,816.4,541,RIGHT,NONE,3,26,1,200,north_west,0,south_east,0,0,0,0,400,348,1,north_east,0,710,386
SR01TR,0.48,47.97,FALSE,.,10,-158.4,965,1017.6,325.7,2,43.88,956,1039.3,317.1,RIGHT,NONE,3,26,1,200,north_west,0,south_east,0,0,0,0,400,348,1,north_east,0,710,386
SR01TR,5.61,130.4,FALSE,LEFT,43,-145.02,951,616.6,720.4,1,237.47,909,840.8,562.9,RIGHT,NONE,3,27,1,531,north_west,0,south_east,0,0,0,0,299,257,1,south_west,0,710,387
SR01TR,5.83,129.67,FALSE,UP,45,46.58,669,1038.1,332.5,1,223.76,625,843.2,538.7,RIGHT,NONE,3,28,1,248,north_west,0,south_east,0,0,0,0,286,242,1,north_east,0,710,388
SR01TR,0.37,41.35,FALSE,.,9,22.04,1001,1061.1,345.8,2,39.22,993,1044.3,352.6,RIGHT,NONE,3,28,1,248,north_west,0,south_east,0,0,0,0,286,242,1,north_east,0,710,388
SR01TR,6,139.65,FALSE,LEFT,43,138.39,864,622.6,340.7,1,216.21,822,840.8,534.7,RIGHT,NONE,3,29,1,436,north_west,0,south_east,0,1,0,0,293,251,1,north_west,0,711,389
SR01TR,5.72,136.09,FALSE,RIGHT,42,42.32,1205,1057,358.6,1,220.09,1164,851.6,546,RIGHT,NONE,3,30,1,793,north_west,0,south_east,0,0,0,0,277,236,1,north_east,0,711,390
SR01TR,5.68,120.76,FALSE,UP,47,47.23,671,1018.7,335,1,202.74,625,831.6,537.7,RIGHT,NONE,3,31,1,239,north_west,0,south_east,0,0,0,0,301,255,1,north_east,0,711,391
SR01TR,0.8,44.46,FALSE,UP,18,47.71,873,1046.1,320.2,2,63.32,856,1019.9,349,RIGHT,NONE,3,31,1,239,north_west,0,south_east,0,0,0,0,301,255,1,north_east,0,711,391
SR01TR,5.31,110.6,FALSE,RIGHT,48,43.94,683,1022,365.2,1,185.49,636,836.4,544.4,RIGHT,NONE,3,32,1,252,north_west,0,south_east,0,0,0,0,296,249,1,north_east,0,711,392
SR01TR,0.96,56.58,FALSE,UP,17,51.86,835,1048,338,2,69.87,819,1019.1,374.8,RIGHT,NONE,3,32,1,252,north_west,0,south_east,0,0,0,0,296,249,1,north_east,0,711,392
SR01TR,5.82,132.25,FALSE,RIGHT,44,43.59,787,1016.9,392.1,1,216.83,744,812.3,587.5,RIGHT,NONE,3,33,1,394,north_west,0,south_east,0,0,0,0,259,215,1,north_east,0,711,393
SR01TR,0.54,44.89,FALSE,UP,12,61.48,976,1024.9,372.3,2,45.12,965,1012.4,395.3,RIGHT,NONE,3,33,1,394,north_west,0,south_east,0,0,0,0,259,215,1,north_east,0,711,393
SR01TR,6.05,140.76,FALSE,RIGHT,43,-41.62,1166,1084.5,721.3,1,276.35,1124,863.7,524.3,RIGHT,NONE,3,34,1,765,north_west,0,south_east,0,1,0,0,269,227,1,south_east,0,712,394
SR01TR,0.35,44.07,FALSE,.,8,171.07,1423,1062,719.2,2,36.77,1416,1079.1,721.9,RIGHT,NONE,3,34,1,765,north_west,0,south_east,0,1,0,0,269,227,1,south_east,0,712,394
SR01TR,4.85,121.37,FALSE,RIGHT,40,41.03,648,1022.3,369.8,1,170.92,609,844.5,524.7,RIGHT,NONE,3,35,1,234,north_west,0,south_east,0,0,0,0,281,242,1,north_east,0,712,395
SR01TR,2.22,85.43,FALSE,UP,26,49.86,737,1094.1,286.8,2,140.56,712,1024.3,369.5,RIGHT,NONE,3,35,1,234,north_west,0,south_east,0,0,0,0,281,242,1,north_east,0,712,395
SR01TR,0.83,55.11,FALSE,LEFT,15,-158.15,902,1037.9,311.9,3,64.17,888,1075.3,296.9,RIGHT,NONE,3,35,1,234,north_west,0,south_east,0,0,0,0,281,242,1,north_east,0,712,395
SR01TR,5.92,137.58,FALSE,LEFT,43,135.4,765,620.4,315.3,1,210.95,723,825.1,517.4,RIGHT,NONE,3,36,1,336,north_west,0,south_east,0,10,1,0,295,253,1,north_west,0,722,396
SR01TR,0.29,40.93,FALSE,.,7,160.77,1037,595.8,320.1,2,35.51,1031,609,324.7,RIGHT,NONE,3,36,1,336,north_west,0,south_east,0,10,1,0,295,253,1,north_west,0,722,396
SR01TR,5.08,112.97,FALSE,LEFT,45,-138.6,992,671.6,696.1,1,191.64,948,857.3,531.7,RIGHT,NONE,3,37,1,554,north_west,0,south_east,0,0,0,0,305,261,1,south_west,0,722,397
SR01TR,0.74,56.81,FALSE,LEFT,13,-163.71,1328,636.3,714.8,2,59.22,1316,671,704.6,RIGHT,NONE,3,37,1,554,north_west,0,south_east,0,0,0,0,305,261,1,south_west,0,722,397
SR01TR,5.7,132.64,FALSE,LEFT,43,-144.16,1098,621.1,695.2,1,202.61,1056,846.5,531.9,RIGHT,NONE,3,38,1,590,north_west,0,south_east,0,0,0,0,373,331,1,south_west,0,722,398
SR01TR,6.01,133.51,FALSE,LEFT,45,-143.65,919,610.6,701.2,1,250.5,875,846.5,526.9,RIGHT,NONE,3,39,1,493,north_west,0,south_east,0,0,0,0,295,251,1,south_west,0,722,399
SR01TR,0.53,48.39,FALSE,LEFT,11,178.69,1227,589.5,699.7,2,46.68,1217,615.6,700.3,RIGHT,NONE,3,39,1,493,north_west,0,south_east,0,0,0,0,295,251,1,south_west,0,722,399
SR01TR,0.29,35.94,FALSE,.,8,147.05,377,821.6,511.9,1,32.69,370,833.3,519.5,RIGHT,NONE,3,40,1,671,north_west,0,south_east,0,0,0,0,272,231,1,north_east,0,722,400
SR01TR,6.29,149.67,FALSE,RIGHT,42,43.65,1077,1065.6,279.4,2,282.55,1036,844.3,490.7,RIGHT,NONE,3,40,1,671,north_west,0,south_east,0,0,0,0,272,231,1,north_east,0,722,400
SR01TR,6.23,151.96,FALSE,LEFT,41,138.41,1095,607,346.1,1,258.25,1055,833.7,547.5,RIGHT,NONE,3,41,1,650,north_west,0,south_east,0,10,0,0,310,270,1,north_west,0,732,401
SR01TR,5.98,124.53,FALSE,LEFT,48,-140.17,989,607.5,747.6,1,248.41,942,831.5,559.6,RIGHT,NONE,3,42,1,422,north_west,0,south_east,0,0,0,0,433,385,1,south_west,0,732,402
SR01TR,4.96,118.13,FALSE,LEFT,42,-145.41,1146,665.5,661.8,1,224.14,1105,864.2,524.2,RIGHT,NONE,3,43,1,679,north_west,0,south_east,0,0,0,0,332,291,1,south_west,0,732,403
SR01TR,1.07,63.16,FALSE,LEFT,17,-159.71,1395,604.7,682.7,2,79.06,1379,654,664.4,RIGHT,NONE,3,43,1,679,north_west,0,south_east,0,0,0,0,332,291,1,south_west,0,732,403
SR01TR,5.79,137.97,FALSE,LEFT,42,-142.19,1111,604.2,680.6,1,251,1070,827.4,506.9,RIGHT,NONE,3,44,1,624,north_west,0,south_east,0,0,1,0,352,311,1,south_west,0,732,404
SR01TR,4.91,153.34,FALSE,LEFT,32,-139.9,963,663.7,709,1,260.13,932,846.5,554.3,RIGHT,NONE,3,45,1,578,north_west,0,south_east,0,0,0,0,264,232,1,south_west,0,732,405
SR01TR,0.83,55.24,FALSE,LEFT,15,171.55,1201,613.1,724,2,64.34,1187,653.3,730,RIGHT,NONE,3,45,1,578,north_west,0,south_east,0,0,0,0,264,232,1,south_west,0,732,405
SR01TR,6.33,150.7,FALSE,RIGHT,42,-44.74,1084,1059.5,745.9,1,288.44,1043,840.1,527.6,RIGHT,NONE,3,46,1,683,north_west,0,south_east,0,1,0,0,269,228,1,south_east,0,733,406
SR01TR,0.29,36.28,FALSE,.,8,100.11,1340,1056.4,724.1,2,35.06,1333,1058.9,738.2,RIGHT,NONE,3,46,1,683,north_west,0,south_east,0,1,0,0,269,228,1,south_east,0,733,406
SR01TR,5.77,144.24,FALSE,LEFT,40,138.96,1074,640.7,330.4,1,219.14,1035,852.2,514.7,RIGHT,NONE,3,47,1,668,north_west,0,south_east,0,10,0,0,271,232,1,north_west,0,743,407
SR01TR,5.95,145.13,FALSE,RIGHT,41,-41.16,935,1049.1,711.6,1,287.37,895,830.7,519.9,RIGHT,NONE,3,48,1,542,north_west,0,south_east,0,1,0,0,258,218,1,south_east,0,744,408
SR01TR,6.4,142.31,FALSE,LEFT,45,136.94,819,618.7,324.8,1,225.47,775,846.1,537.5,RIGHT,NONE,3,49,1,405,north_west,0,south_east,0,10,0,0,280,236,1,north_west,0,754,409
SR01TR,5.96,132.47,FALSE,LEFT,45,-142.83,943,604.5,702.2,1,222.25,899,836.3,525.9,RIGHT,NONE,3,50,1,522,north_west,0,south_east,0,0,0,0,299,254,1,south_west,0,754,410
SR01TR,6.24,141.92,FALSE,LEFT,44,137.74,1104,625.2,315.7,1,229.03,1061,849.8,520,RIGHT,NONE,3,51,1,705,north_west,0,south_east,0,10,0,0,264,221,1,north_west,0,764,411
SR01TR,6.61,146.86,FALSE,RIGHT,45,-38.91,801,1098.6,737.1,1,280.25,757,847.4,533.7,RIGHT,NONE,3,52,1,359,north_west,0,south_east,0,1,0,0,309,265,1,south_east,0,765,412
SR01TR,0.54,54.36,FALSE,LEFT,10,163.77,1010,1057.2,724.2,2,48.66,1001,1082.8,731.7,RIGHT,NONE,3,52,1,359,north_west,0,south_east,0,1,0,0,309,265,1,south_east,0,765,412
SR01TR,6.48,147.38,FALSE,LEFT,44,136.94,732,606.9,322.1,1,238.2,689,837.4,537.5,RIGHT,NONE,3,53,1,329,north_west,0,south_east,0,10,0,0,281,238,1,north_west,0,775,413
SR01TR,5.43,143.01,FALSE,LEFT,38,-140.35,887,605.6,713.1,1,249.67,850,809.8,543.2,RIGHT,NONE,3,54,1,488,north_west,0,south_east,0,0,0,0,264,227,1,south_west,0,775,414
SR01TR,0.7,58.5,FALSE,LEFT,12,-179.01,1210,576.4,712.2,2,56.5,1199,610.9,711.6,RIGHT,NONE,3,54,1,488,north_west,0,south_east,0,0,0,0,264,227,1,south_west,0,775,414
SR01TR,6.39,135.89,FALSE,LEFT,47,141.44,1106,618.2,342.1,1,239.5,1060,860.9,535.8,RIGHT,NONE,3,55,1,694,north_west,0,south_east,0,10,0,0,276,230,1,north_west,0,785,415
SR01TR,5.16,151.86,FALSE,RIGHT,34,-44.32,958,1022.8,700,1,253.39,925,842.9,523.6,RIGHT,NONE,3,56,1,584,north_west,0,south_east,0,1,0,0,253,220,1,south_east,0,786,416
SR01TR,6.28,149.44,FALSE,RIGHT,42,-40.13,1026,1079.5,726.6,1,265.53,985,845.3,528.4,RIGHT,NONE,3,57,1,574,north_west,0,south_east,0,1,0,0,317,275,1,south_east,0,787,417
SR01TR,0.39,48.2,FALSE,.,8,173.67,1273,1053.2,727.1,2,39.05,1266,1072,729.2,RIGHT,NONE,3,57,1,574,north_west,0,south_east,0,1,0,0,317,275,1,south_east,0,787,417
SR01TR,4.91,116.88,FALSE,RIGHT,42,-40.46,1138,1041.1,670.6,1,212.17,1097,859.2,515,RIGHT,NONE,3,58,1,699,north_west,0,south_east,0,10,0,0,304,263,1,south_east,0,797,418
SR01TR,0.79,56.24,FALSE,RIGHT,14,-32.51,1316,1075.8,691.8,2,60.68,1303,1043.3,671,RIGHT,NONE,3,58,1,699,north_west,0,south_east,0,10,0,0,304,263,1,south_east,0,797,418
SR01TR,6.15,130.77,FALSE,RIGHT,47,-38.36,1146,1081.1,704.7,1,243.31,1100,845.9,518,RIGHT,NONE,3,59,1,755,north_west,0,south_east,0,1,0,0,269,223,1,south_east,0,798,419
SR01TR,0.36,44.64,FALSE,.,8,177.4,1372,1057.8,704.4,2,38.6,1365,1075.3,705.2,RIGHT,NONE,3,59,1,755,north_west,0,south_east,0,1,0,0,269,223,1,south_east,0,798,419
SR01TR,5.66,120.34,FALSE,RIGHT,47,43.1,682,1019.5,362.1,1,179.31,636,819,550.1,RIGHT,NONE,3,60,1,211,north_west,0,south_east,0,0,0,0,336,291,1,north_east,0,798,420
SR01TR,0.91,60.93,FALSE,RIGHT,15,29.51,862,1055,347,2,67.84,848,1016.3,368.9,RIGHT,NONE,3,60,1,211,north_west,0,south_east,0,0,0,0,336,291,1,north_east,0,798,420
SR01TR,6.47,146.95,FALSE,LEFT,44,138.53,1094,617.9,307.8,1,236.38,1051,853.6,516.1,RIGHT,NONE,3,61,1,681,north_west,0,south_east,0,10,0,0,278,235,1,north_west,0,808,421
SR01TR,5.55,117.98,FALSE,LEFT,47,-141.9,1094,649.2,706.7,1,233,1048,861.7,539.2,RIGHT,NONE,3,62,1,659,north_west,0,south_east,0,0,0,0,302,255,1,south_west,0,808,422
SR01TR,5.8,126.05,FALSE,LEFT,46,-137.32,961,654.1,724.1,1,233.51,916,861.9,531.7,RIGHT,NONE,3,63,1,548,north_west,0,south_east,0,0,0,0,279,234,1,south_west,0,808,423
SR01TR,0.32,22.86,FALSE,.,14,117.34,1176,642.2,706,2,32.07,1163,649.4,720,RIGHT,NONE,3,63,1,548,north_west,0,south_east,0,0,0,0,279,234,1,south_west,0,808,423
SR01TR,5.78,137.58,FALSE,LEFT,42,136.5,686,638.3,337.9,1,225.44,645,842,531.4,RIGHT,NONE,3,64,1,256,north_west,0,south_east,0,10,0,0,309,268,1,north_west,0,818,424
SR01TR,0.47,47.06,FALSE,.,10,176.5,937,607.6,344.6,2,42.59,928,630.5,346,RIGHT,NONE,3,64,1,256,north_west,0,south_east,0,10,0,0,309,268,1,north_west,0,818,424
SR01TR,5.99,146.19,FALSE,RIGHT,41,-37.57,1122,1059.8,710.4,1,282.21,1082,828.2,531.5,RIGHT,NONE,3,65,1,739,north_west,0,south_east,0,1,0,0,251,211,1,south_east,0,819,425
SR01TR,0.44,48.53,FALSE,.,9,-170.38,1410,1034.4,720.1,2,42.77,1402,1055.5,716.5,RIGHT,NONE,3,65,1,739,north_west,0,south_east,0,1,0,0,251,211,1,south_east,0,819,425
SR01TR,6.16,143.22,FALSE,LEFT,43,136.17,1041,628.9,324.9,1,235.62,999,844.8,532.4,RIGHT,NONE,3,66,1,612,north_west,0,south_east,0,10,1,0,294,252,1,north_west,0,829,426
SR01TR,5.87,136.41,FALSE,LEFT,43,139.64,727,622.5,368.7,1,194.94,685,839.7,553.7,RIGHT,NONE,3,67,1,256,north_west,0,south_east,0,1,0,0,334,292,1,north_west,0,830,427
SR01TR,6.26,142.28,FALSE,RIGHT,44,-40.59,1001,1073.4,749.3,1,256.09,958,841.4,549.3,RIGHT,NONE,3,68,1,572,north_west,0,south_east,0,1,1,0,295,252,1,south_east,0,831,428
SR01TR,6.53,151.93,FALSE,LEFT,43,138.98,828,605.9,314,1,247.65,786,845.7,522.6,RIGHT,NONE,3,69,1,402,north_west,0,south_east,0,10,0,0,291,248,1,north_west,0,841,429
SR01TR,0.66,47.33,FALSE,RIGHT,14,-4.62,1054,632.9,325.2,2,52.51,1041,600.7,322.6,RIGHT,NONE,3,69,1,402,north_west,0,south_east,0,10,0,0,291,248,1,north_west,0,841,429
SR01TR,5.59,151.11,FALSE,LEFT,37,-141.39,1142,645.3,707.3,1,258.4,1106,858.3,536.7,RIGHT,NONE,3,70,1,738,north_west,0,south_east,0,0,0,0,283,247,1,south_west,0,841,430
SR01TR,5.48,114.15,FALSE,LEFT,48,-138.48,730,654.9,705.1,1,205.9,683,854.7,527.5,RIGHT,NONE,3,71,1,264,north_west,0,south_east,0,0,0,0,333,286,1,south_west,0,841,431
SR01TR,0.57,47.79,FALSE,LEFT,12,179.8,977,620.2,723.3,2,48.31,966,648.3,723.4,RIGHT,NONE,3,71,1,264,north_west,0,south_east,0,0,0,0,333,286,1,south_west,0,841,431
SR01TR,6.4,136.09,FALSE,LEFT,47,137.21,656,626.3,300.9,1,222.16,610,854.4,512.3,RIGHT,NONE,3,72,1,229,north_west,0,south_east,0,10,0,0,293,247,1,north_west,0,851,432
SR01TR,5.38,131.23,FALSE,RIGHT,41,-39.29,805,1051.8,700.3,1,236.56,765,848.8,533.7,RIGHT,NONE,3,73,1,381,north_west,0,south_east,0,10,0,0,288,249,1,south_east,0,861,433
SR01TR,0.22,15.91,FALSE,.,14,-62.15,1144,1062.7,701.1,2,30.04,1131,1057.6,691.4,RIGHT,NONE,3,73,1,381,north_west,0,south_east,0,10,0,0,288,249,1,south_east,0,861,433
SR01TR,5.47,124.24,FALSE,RIGHT,44,-38.18,746,1056,703.5,1,222.2,703,846.5,538.1,RIGHT,NONE,3,74,1,342,north_west,0,south_east,0,1,0,0,269,226,1,south_east,0,862,434
SR01TR,5.48,127.55,FALSE,LEFT,43,-142.78,1031,647.7,702.8,1,208.3,989,860.4,540.4,RIGHT,NONE,3,75,1,597,north_west,0,south_east,0,0,0,0,299,257,1,south_west,0,862,435
SR01TR,0.46,45.69,FALSE,.,10,-175.67,1357,624.3,704.4,2,41.68,1348,646.6,702.7,RIGHT,NONE,3,75,1,597,north_west,0,south_east,0,0,0,0,299,257,1,south_west,0,862,435
SR01TR,5.68,138.61,FALSE,RIGHT,41,-41.9,896,1069.2,691.9,1,278.41,856,863,506.3,RIGHT,NONE,3,76,1,523,north_west,0,south_east,0,1,0,0,251,211,1,south_east,0,863,436
SR01TR,0.42,47.01,FALSE,.,9,-4.13,1136,1085.6,693.1,2,42.83,1128,1064.9,691.6,RIGHT,NONE,3,76,1,523,north_west,0,south_east,0,1,0,0,251,211,1,south_east,0,863,436
SR01TR,5.84,145.95,FALSE,LEFT,40,135.83,893,640.5,332.7,1,230.09,854,844,530.6,RIGHT,NONE,3,77,1,492,north_west,0,south_east,0,10,0,0,267,228,1,north_west,0,873,437
SR01TR,6.3,149.9,FALSE,LEFT,42,136.07,797,615.7,337.6,1,247.18,756,836.3,550.3,RIGHT,NONE,3,78,1,380,north_west,0,south_east,0,10,0,0,283,242,1,north_west,0,883,438
SR01TR,4.96,115.34,FALSE,RIGHT,43,-35.88,687,1035.5,701.7,1,208.69,645,839.8,559.4,RIGHT,NONE,3,79,1,242,north_west,0,south_east,0,1,0,0,313,271,1,south_east,0,884,439
SR01TR,0.8,46.95,FALSE,DOWN,17,-57,843,1053.6,737.8,2,53.6,827,1032.3,704.8,RIGHT,NONE,3,79,1,242,north_west,0,south_east,0,1,0,0,313,271,1,south_east,0,884,439
SR01TR,6.18,137.42,FALSE,LEFT,45,139.04,917,619.6,298.8,1,229.7,873,846.8,496,RIGHT,NONE,3,80,1,508,north_west,0,south_east,0,1,0,0,275,231,1,north_west,0,885,440
SR01TR,6.06,131.8,FALSE,UP,46,45.31,812,1049.1,319.2,1,258.7,767,841.9,528.9,RIGHT,NONE,3,81,1,404,north_west,0,south_east,0,0,0,0,275,230,1,north_east,0,885,441
SR01TR,6.01,139.84,FALSE,RIGHT,43,-41.93,795,1056.1,728.7,1,274.78,753,837.8,531.8,RIGHT,NONE,3,82,1,383,north_west,0,south_east,0,1,0,0,277,236,1,south_east,0,886,442
SR01TR,6.04,137.17,FALSE,RIGHT,44,43.04,952,1062.8,314.8,1,245.25,909,848.2,515.2,RIGHT,NONE,3,83,1,547,north_west,0,south_east,0,0,0,0,271,227,1,north_east,0,886,443
SR01TR,5.72,130.05,FALSE,LEFT,44,-139.88,974,629.7,716.4,1,243.83,931,843,535.9,RIGHT,NONE,3,84,1,530,north_west,0,south_east,0,0,0,0,309,266,1,south_west,0,886,444
SR01TR,5.87,136.54,FALSE,LEFT,43,138.41,810,636.8,336.2,1,213.83,768,850.2,525.8,RIGHT,NONE,3,85,1,399,north_west,0,south_east,0,1,0,0,278,236,1,north_west,0,887,445
SR01TR,5.73,124.63,FALSE,RIGHT,46,43.11,770,1044,357.7,1,233.3,725,840.6,548.5,RIGHT,NONE,3,86,1,378,north_west,0,south_east,0,0,0,0,259,213,1,north_east,0,887,446
