RECORDING_SESSION_LABEL,answer,block_number,c_target,fix_to_stim,high_location,low_location,response_key,response_time,target_correct,target_position,trial_number,CURRENT_FIX_BLINK_AROUND,CURRENT_FIX_END,CURRENT_FIX_INDEX,CURRENT_FIX_DURATION,CURRENT_FIX_START,CURRENT_FIX_X,CURRENT_FIX_Y,NEXT_SAC_DURATION,NEXT_SAC_DIRECTION,NEXT_SAC_CONTAINS_BLINK,NEXT_SAC_AMPLITUDE,NEXT_SAC_ANGLE,NEXT_SAC_AVG_VELOCITY,NEXT_SAC_END_TIME,NEXT_SAC_END_X,NEXT_SAC_END_Y,NEXT_SAC_INDEX,NEXT_SAC_PEAK_VELOCITY,NEXT_SAC_START_X,NEXT_SAC_START_Y,NEXT_SAC_START_TIME,PREVIOUS_FIX_BLINK_AROUND
SRC01TE1,left,0,left,628,north_west,south_east,left,397,1,north_east,0,NONE,532,1,526,7,834.9,511.1,22,LEFT,FALSE,1.56,140.68,70.99,554,773.7,460.1,1,105.23,832.3,508.2,533,.
SRC01TE1,left,0,left,628,north_west,south_east,left,397,1,north_east,0,NONE,929,2,375,555,760.1,451.5,26,UP,FALSE,2.49,80.19,95.89,955,779.1,328.9,2,116.23,758.5,448.3,930,NONE
SRC01TE1,left,0,left,628,north_west,south_east,left,397,1,north_east,0,NONE,1005,3,50,956,774.8,305.8,39,RIGHT,FALSE,7.11,9.84,182.25,1044,1110.3,249.2,3,351.86,768.9,308.4,1006,NONE
SRC01TE1,left,0,left,628,north_west,south_east,left,397,1,north_east,0,NONE,1173,4,129,1045,1082.2,260,.,.,.,.,.,.,.,.,.,.,.,.,.,.,NONE
SRC01TE1,left,0,left,257,north_west,south_east,right,408,0,north_east,1,NONE,538,1,532,7,839,528.9,36,UP,FALSE,3.14,93.32,87.11,574,827.1,380.2,1,109.43,835.9,532.2,539,.
SRC01TE1,left,0,left,257,north_west,south_east,right,408,0,north_east,1,NONE,643,2,69,575,817.5,388.4,33,RIGHT,FALSE,4.65,9.39,140.95,676,1033.7,352.9,2,264.52,810.9,389.8,644,NONE
SRC01TE1,left,0,left,257,north_west,south_east,right,408,0,north_east,1,NONE,800,3,124,677,1012.2,364.7,.,.,.,.,.,.,.,.,.,.,.,.,.,.,NONE
SRC01TE1,right,0,right,608,north_west,south_east,right,791,1,north_east,2,NONE,478,1,472,7,836.5,517.8,22,RIGHT,FALSE,1.93,15.69,87.51,500,921.1,494.9,1,123.65,831.2,520.2,479,.
SRC01TE1,right,0,right,608,north_west,south_east,right,791,1,north_east,2,NONE,770,2,270,501,908.4,488.2,32,DOWN,FALSE,4.27,-115.16,133.57,802,813.1,672,2,224.35,901.4,483.2,771,NONE
SRC01TE1,right,0,right,608,north_west,south_east,right,791,1,north_east,2,NONE,945,3,143,803,804.3,665.3,31,RIGHT,FALSE,3.3,-8.77,106.5,976,960.8,687.5,3,189.05,801.9,662.8,946,NONE
SRC01TE1,right,0,right,608,north_west,south_east,right,791,1,north_east,2,NONE,1056,4,80,977,947.9,688.7,51,UP,FALSE,8.77,74.9,172.01,1107,1057.2,276.5,4,300.43,945.7,691.1,1057,NONE
SRC01TE1,right,0,right,608,north_west,south_east,right,791,1,north_east,2,NONE,1535,5,428,1108,1033,320,.,.,.,.,.,.,.,.,.,.,.,.,.,.,NONE
SRC01TE1,left,0,left,464,north_west,south_east,right,736,0,south_east,3,NONE,362,1,356,7,837.4,528.5,30,UP,FALSE,2.69,55.71,89.67,392,911.9,429.4,1,127.8,838.4,537.3,363,.
SRC01TE1,left,0,left,464,north_west,south_east,right,736,0,south_east,3,NONE,736,2,344,393,877.7,405.8,42,RIGHT,FALSE,5.36,20.02,127.51,778,1117.2,324.3,2,227.85,872.4,413.5,737,NONE
SRC01TE1,left,0,left,464,north_west,south_east,right,736,0,south_east,3,NONE,970,3,192,779,1098.4,339,17,LEFT,FALSE,0.98,-166.37,57.36,987,1048.9,352.8,3,78.6,1095.1,341.6,971,NONE
SRC01TE1,left,0,left,464,north_west,south_east,right,736,0,south_east,3,NONE,1338,4,351,988,1047.3,356,.,.,.,.,.,.,.,.,.,.,.,.,.,.,NONE
SRC01TE1,right,0,right,330,north_west,south_east,right,588,1,north_east,4,NONE,634,1,628,7,838.2,544.9,35,RIGHT,FALSE,3.39,29.94,96.84,669,972.9,477.1,1,137.91,830.3,559.4,635,.
SRC01TE1,right,0,right,330,north_west,south_east,right,588,1,north_east,4,NONE,718,2,49,670,965.9,481.9,26,UP,FALSE,2.53,47.84,97.27,744,1044.5,392.4,2,166.33,962,483.6,719,NONE
SRC01TE1,right,0,right,330,north_west,south_east,right,588,1,north_east,4,NONE,930,3,186,745,1033.8,393.8,12,UP,FALSE,0.7,51.79,58.64,942,1051.5,366.5,3,60.61,1030.3,393.4,931,NONE
SRC01TE1,right,0,right,330,north_west,south_east,right,588,1,north_east,4,NONE,1038,4,96,943,1045.5,360.4,.,.,.,.,.,.,.,.,.,.,.,.,.,.,NONE
SRC01TE1,right,0,right,427,north_west,south_east,right,543,1,north_east,5,NONE,562,1,556,7,847.2,518.4,23,UP,FALSE,1.49,109.48,64.59,585,812.6,447,1,80.48,836.6,515,563,.
SRC01TE1,right,0,right,427,north_west,south_east,right,543,1,north_east,5,NONE,727,2,142,586,796,439.8,69,RIGHT,FALSE,6.12,25.69,88.74,796,1058.5,314.7,2,239.37,790.6,443.7,728,NONE
SRC01TE1,right,0,right,427,north_west,south_east,right,543,1,north_east,5,NONE,1109,3,313,797,1044.7,320.6,.,.,.,.,.,.,.,.,.,.,.,.,.,.,NONE
SRC01TE1,right,0,right,692,north_west,south_east,left,714,0,south_west,6,NONE,398,1,392,7,840.6,522.7,32,RIGHT,FALSE,2.42,40.36,75.76,430,929.8,443.5,1,109.67,840.2,519.8,399,.
SRC01TE1,right,0,right,692,north_west,south_east,left,714,0,south_west,6,NONE,654,2,224,431,903.7,432.3,22,RIGHT,FALSE,1.89,33.79,85.68,676,967.7,384,2,129.13,891.8,434.9,655,NONE
SRC01TE1,right,0,right,692,north_west,south_east,left,714,0,south_west,6,NONE,989,3,313,677,942.5,381.1,25,RIGHT,FALSE,2.52,30.95,100.87,1014,1042.4,314.3,3,161.37,937.3,377.4,990,NONE
SRC01TE1,right,0,right,692,north_west,south_east,left,714,0,south_west,6,NONE,1264,4,250,1015,1033.6,317.6,51,LEFT,FALSE,11.8,-137.69,231.37,1315,607.3,706,4,412.36,1034,316.8,1265,NONE
SRC01TE1,right,0,right,692,north_west,south_east,left,714,0,south_west,6,NONE,1542,5,227,1316,602,703.3,.,.,.,.,.,.,.,.,.,.,.,.,.,.,NONE
SRC01TE1,left,0,left,651,north_west,south_east,left,607,1,north_west,7,NONE,388,1,382,7,858.2,546.5,9,.,FALSE,0.48,170.86,53.14,397,837.4,548.9,1,46.28,860.3,552.6,389,.
SRC01TE1,left,0,left,651,north_west,south_east,left,607,1,north_west,7,NONE,831,2,434,398,835.8,534.1,22,UP,FALSE,1.88,57.06,85.59,853,880.6,453.3,2,121.06,831,530.1,832,NONE
SRC01TE1,left,0,left,651,north_west,south_east,left,607,1,north_west,7,NONE,1045,3,192,854,870.1,453.2,40,LEFT,FALSE,5.44,164.07,136.12,1085,620.2,383.3,3,199.32,874.4,456,1046,NONE
SRC01TE1,left,0,left,651,north_west,south_east,left,607,1,north_west,7,NONE,1403,4,318,1086,613.8,389.6,.,.,.,.,.,.,.,.,.,.,.,.,.,.,NONE
SRC01TE1,left,0,left,700,north_west,south_east,left,521,1,north_east,8,NONE,1367,1,1361,7,849.3,513.2,.,.,.,.,.,.,.,.,.,.,.,.,.,.,.
SRC01TE1,right,0,right,377,north_west,south_east,right,667,1,north_east,9,NONE,1178,1,1172,7,842.4,527.7,.,.,.,.,.,.,.,.,.,.,.,.,.,.,.
SRC01TE1,left,0,left,571,north_west,south_east,left,762,1,north_west,10,NONE,1466,1,1460,7,836.2,528.2,.,.,.,.,.,.,.,.,.,.,.,.,.,.,.
SRC01TE1,left,0,left,223,north_west,south_east,left,567,1,north_east,11,NONE,923,1,917,7,838.7,525,.,.,.,.,.,.,.,.,.,.,.,.,.,.,.
SRC01TE1,right,0,right,647,north_west,south_east,right,494,1,north_west,12,NONE,422,1,416,7,833.7,523.6,24,UP,FALSE,1.57,52.07,65.33,446,878.8,460.4,1,98.65,832.1,520.5,423,.
SRC01TE1,right,0,right,647,north_west,south_east,right,494,1,north_west,12,NONE,1028,2,582,447,853.3,453.4,23,LEFT,FALSE,2,-149.24,87.1,1051,775.9,511.1,2,127.32,859.3,461.3,1029,NONE
SRC01TE1,right,0,right,647,north_west,south_east,right,494,1,north_west,12,NONE,1231,3,180,1052,774.5,521.5,44,RIGHT,FALSE,1.39,6.48,31.5,1275,844,514.4,3,111.13,777.2,522,1232,NONE
SRC01TE1,right,0,right,399,north_west,south_east,right,731,1,north_east,13,NONE,1272,1,1266,7,835.9,533.9,.,.,.,.,.,.,.,.,.,.,.,.,.,.,.
SRC01TE1,right,0,right,707,north_west,south_east,right,513,1,south_west,14,NONE,1122,1,1116,7,836.4,520,25,LEFT,FALSE,2.17,-163.63,86.65,1147,739,537.4,1,118.43,839.8,507.7,1123,.
SRC01TE1,right,0,right,707,north_west,south_east,right,513,1,south_west,14,NONE,1294,2,147,1148,739,536.2,24,RIGHT,FALSE,2.34,18.43,97.53,1318,844,501.8,2,153.51,736.3,537.8,1295,NONE
SRC01TE1,right,0,right,707,north_west,south_east,right,513,1,south_west,14,NONE,1360,3,42,1319,844.6,498.5,.,.,.,.,.,.,.,.,.,.,.,.,.,.,NONE
SRC01TE1,left,0,left,424,north_west,south_east,left,501,1,south_west,15,NONE,778,1,772,7,839.6,514.9,34,LEFT,FALSE,3.54,-151.19,104.15,812,687.5,591.6,1,153.77,838.3,508.5,779,.
SRC01TE1,left,0,left,424,north_west,south_east,left,501,1,south_west,15,NONE,953,2,141,813,689.2,591.9,34,RIGHT,FALSE,3.63,32.51,106.64,987,834.6,499.5,2,164.56,686,594.4,954,NONE
SRC01TE1,left,0,left,424,north_west,south_east,left,501,1,south_west,15,NONE,1059,3,72,988,822,504.9,.,.,.,.,.,.,.,.,.,.,.,.,.,.,NONE
SRC01TE1,right,0,right,411,north_west,south_east,right,786,1,south_east,16,NONE,1335,1,1329,7,828.9,507.2,.,.,.,.,.,.,.,.,.,.,.,.,.,.,.
SRC01TE1,left,0,left,348,north_west,south_east,left,673,1,north_east,17,NONE,1167,1,1161,7,825.2,536.6,.,.,.,.,.,.,.,.,.,.,.,.,.,.,.
SRC01TE1,right,0,right,297,north_west,south_east,right,646,1,north_west,18,NONE,823,1,817,7,845.6,515.2,21,LEFT,FALSE,1.33,149.8,63.5,844,786.5,479.3,1,66.38,842.4,511.9,824,.
SRC01TE1,right,0,right,297,north_west,south_east,right,646,1,north_west,18,NONE,1016,2,172,845,774.1,476.8,22,RIGHT,FALSE,1.82,-8.96,82.83,1038,857.4,489.1,2,123.15,770.1,475.3,1017,NONE
SRC01TE1,right,0,right,297,north_west,south_east,right,646,1,north_west,18,NONE,1082,3,44,1039,843.4,491.3,.,.,.,.,.,.,.,.,.,.,.,.,.,.,NONE
SRC01TE1,left,0,left,636,north_west,south_east,left,685,1,south_east,19,NONE,1466,1,1460,7,845.4,523.8,.,.,.,.,.,.,.,.,.,.,.,.,.,.,.
SRC01TE1,left,0,left,564,north_west,south_east,left,467,1,south_west,20,NONE,942,1,936,7,838.9,532.2,30,LEFT,FALSE,2.6,-162.03,86.76,972,709.2,565,1,117.2,829.4,525.9,943,.
SRC01TE1,left,0,left,564,north_west,south_east,left,467,1,south_west,20,NONE,1097,2,125,973,708.8,565.9,24,RIGHT,FALSE,2.5,17.31,104.37,1121,823.9,534.6,2,159.52,707.8,570.9,1098,NONE
SRC01TE1,left,0,left,564,north_west,south_east,left,467,1,south_west,20,NONE,1178,3,57,1122,821.8,533.1,.,.,.,.,.,.,.,.,.,.,.,.,.,.,NONE
SRC01TE1,right,0,right,589,north_west,south_east,right,505,1,south_west,21,NONE,86,1,80,7,843.1,531,6,.,FALSE,0.3,-176.12,50.63,92,827.1,534.1,1,36.38,841.8,533.1,87,.
SRC01TE1,right,0,right,589,north_west,south_east,right,505,1,south_west,21,NONE,1211,2,1119,93,830.7,538.1,30,.,FALSE,0.39,60.51,12.84,1241,841.7,510.7,2,42.34,832.5,527,1212,NONE
SRC01TE1,left,0,left,331,north_west,south_east,left,490,1,south_west,22,NONE,439,1,433,7,838.7,508.9,7,.,FALSE,0.33,4.28,47.26,446,849.8,502.8,1,38.88,833.8,504,440,.
SRC01TE1,left,0,left,331,north_west,south_east,left,490,1,south_west,22,NONE,955,2,509,447,840.6,499.1,.,.,.,.,.,.,.,.,.,.,.,.,.,.,NONE
SRC01TE1,left,0,left,214,north_west,south_east,left,638,1,north_east,23,NONE,556,1,550,7,831.5,524.7,28,LEFT,FALSE,3.13,-152.07,111.79,584,696.2,600.7,1,169.87,830.6,529.3,557,.
SRC01TE1,left,0,left,214,north_west,south_east,left,638,1,north_east,23,NONE,742,2,158,585,682.1,600.9,28,RIGHT,FALSE,2.97,24.14,106.13,770,811.6,541.4,2,176.34,679.8,600.7,743,NONE
SRC01TE1,left,0,left,214,north_west,south_east,left,638,1,north_east,23,NONE,911,3,141,771,790.7,543.2,20,RIGHT,FALSE,1.35,43.49,67.5,931,831.1,496.8,3,97.65,783.6,542,912,NONE
SRC01TE1,left,0,left,214,north_west,south_east,left,638,1,north_east,23,NONE,986,4,55,932,822.4,500.3,.,.,.,.,.,.,.,.,.,.,.,.,.,.,NONE
SRC01TE1,left,0,left,293,north_west,south_east,left,723,1,north_east,24,NONE,1150,1,1144,7,845.6,534.9,.,.,.,.,.,.,.,.,.,.,.,.,.,.,.
SRC01TE1,left,0,left,585,north_west,south_east,left,618,1,north_east,25,NONE,995,1,989,7,847.4,531,24,RIGHT,FALSE,1.76,17.72,73.23,1019,930.8,511.7,1,115.6,849.6,537.7,996,.
SRC01TE1,left,0,left,585,north_west,south_east,left,618,1,north_east,25,NONE,1171,2,152,1020,913.6,517.5,18,LEFT,FALSE,1.21,-168.47,67.46,1189,848.9,530.9,2,91.34,906.6,519.1,1172,NONE
SRC01TE1,left,0,left,585,north_west,south_east,left,618,1,north_east,25,NONE,1338,3,149,1190,846.6,529.3,.,.,.,.,.,.,.,.,.,.,.,.,.,.,NONE
SRC01TE1,right,0,right,746,north_west,south_east,right,500,1,south_west,26,NONE,1147,1,1141,7,840.2,544.2,18,LEFT,FALSE,1.2,-149.22,66.66,1165,792.2,576.9,1,78.12,842.2,547,1148,.
SRC01TE1,right,0,right,746,north_west,south_east,right,500,1,south_west,26,NONE,1279,2,114,1166,774.6,581.4,21,RIGHT,FALSE,1.73,20.61,82.15,1300,851.3,555.2,2,120.57,772.9,584.8,1280,NONE
SRC01TE1,right,0,right,746,north_west,south_east,right,500,1,south_west,26,NONE,1382,3,82,1301,857.2,537.9,.,.,.,.,.,.,.,.,.,.,.,.,.,.,NONE
SRC01TE1,right,0,right,626,north_west,south_east,right,850,1,south_east,27,NONE,1189,1,1183,7,844.5,537,21,RIGHT,FALSE,1.53,-3.53,73.09,1210,918.7,534.8,1,107.35,844.4,530.2,1190,.
SRC01TE1,right,0,right,626,north_west,south_east,right,850,1,south_east,27,NONE,1372,2,162,1211,901.2,541.3,17,LEFT,FALSE,1.2,164.1,70.62,1389,844,525.2,2,87.33,900,541.2,1373,NONE
SRC01TE1,right,0,right,626,north_west,south_east,right,850,1,south_east,27,NONE,1602,3,213,1390,844.9,529.8,.,.,.,.,.,.,.,.,.,.,.,.,.,.,NONE
SRC01TE1,left,0,left,336,north_west,south_east,left,706,1,north_west,28,NONE,414,1,408,7,837.5,522.4,6,.,FALSE,0.27,5.74,44.55,420,835.2,510.5,1,32.64,822.3,511.8,415,.
SRC01TE1,left,0,left,336,north_west,south_east,left,706,1,north_west,28,NONE,1178,2,758,421,827.4,507,.,.,.,.,.,.,.,.,.,.,.,.,.,.,NONE
SRC01TE1,right,0,right,270,north_west,south_east,right,704,1,north_east,29,NONE,801,1,795,7,829.1,513.6,22,.,FALSE,0.39,34.72,17.9,823,845.2,495.7,1,61.42,829.5,506.6,802,.
SRC01TE1,right,0,right,270,north_west,south_east,right,704,1,north_east,29,NONE,1112,2,289,824,837,492.3,.,.,.,.,.,.,.,.,.,.,.,.,.,.,NONE
SRC01TE1,right,0,right,621,north_west,south_east,right,458,1,south_west,30,NONE,457,1,451,7,832.8,533.4,18,.,FALSE,0.28,71.53,15.55,475,840.4,523.1,1,38.06,836.1,536,458,.
SRC01TE1,right,0,right,621,north_west,south_east,right,458,1,south_west,30,NONE,989,2,514,476,836.1,517.4,26,LEFT,FALSE,2.23,-163.62,85.79,1015,733.9,538.5,2,116.75,837.8,507.9,990,NONE
SRC01TE1,right,0,right,621,north_west,south_east,right,458,1,south_west,30,NONE,1118,3,103,1016,732,540.8,24,RIGHT,FALSE,2.51,18.59,104.76,1142,841.4,503,3,164.54,725.7,542,1119,NONE
SRC01TE1,right,0,right,621,north_west,south_east,right,458,1,south_west,30,NONE,1213,4,71,1143,834.7,504.9,.,.,.,.,.,.,.,.,.,.,.,.,.,.,NONE
SRC01TE1,left,0,left,759,north_west,south_east,right,636,0,north_east,31,NONE,360,1,354,7,842.4,529.2,8,.,FALSE,0.44,-179.73,55.16,368,819.5,529.3,1,43.64,840.9,529.2,361,.
SRC01TE1,left,0,left,759,north_west,south_east,right,636,0,north_east,31,NONE,1530,2,1162,369,826.6,518.1,.,.,.,.,.,.,.,.,.,.,.,.,.,.,NONE
SRC01TE1,left,0,left,507,north_west,south_east,right,652,0,north_west,32,NONE,428,1,422,7,854.5,551.2,16,.,FALSE,0.18,136.54,11.01,444,839.6,552.9,1,29.75,845.8,558.8,429,.
SRC01TE1,left,0,left,507,north_west,south_east,right,652,0,north_west,32,NONE,706,2,262,445,833.8,548.1,16,.,FALSE,0.2,20.27,12.23,722,838.5,540.9,2,33.24,829.6,544.2,707,NONE
SRC01TE1,left,0,left,507,north_west,south_east,right,652,0,north_west,32,NONE,1307,3,585,723,830.6,542.9,.,.,.,.,.,.,.,.,.,.,.,.,.,.,NONE
SRC01TE1,right,0,right,555,north_west,south_east,right,997,1,north_west,33,NONE,1571,1,1565,7,847.7,539.8,17,.,FALSE,0.36,179.34,20.98,1588,824.3,537,1,43.37,841.6,537.2,1572,.
SRC01TE1,right,0,right,555,north_west,south_east,right,997,1,north_west,33,NONE,1691,2,103,1589,828.4,540,.,.,.,.,.,.,.,.,.,.,.,.,.,.,NONE
SRC01TE1,right,0,right,539,north_west,south_east,right,818,1,north_east,34,NONE,1362,1,1356,7,840.6,521.8,20,RIGHT,FALSE,0.98,4.21,49,1382,888.9,517.2,1,82.19,841.5,520.7,1363,.
SRC01TE1,right,0,right,539,north_west,south_east,right,818,1,north_east,34,NONE,1490,2,108,1383,871,516.7,.,.,.,.,.,.,.,.,.,.,.,.,.,.,NONE
SRC01TE1,right,0,right,593,north_west,south_east,right,580,1,south_west,35,NONE,1305,1,1299,7,846.4,519.4,.,.,.,.,.,.,.,.,.,.,.,.,.,.,.
SRC01TE1,left,0,left,596,north_west,south_east,left,543,1,south_east,36,NONE,1274,1,1268,7,834.6,521.5,.,.,.,.,.,.,.,.,.,.,.,.,.,.,.
SRC01TE1,right,0,right,472,north_west,south_east,right,839,1,south_east,37,NONE,1235,1,1229,7,832.2,518.9,20,RIGHT,FALSE,1.21,-1.37,60.43,1255,888.1,520.3,1,90.14,829.5,518.9,1236,.
SRC01TE1,right,0,right,472,north_west,south_east,right,839,1,south_east,37,NONE,1445,2,190,1256,869.1,526.2,.,.,.,.,.,.,.,.,.,.,.,.,.,.,NONE
SRC01TE1,right,0,right,412,north_west,south_east,right,643,1,north_west,38,NONE,1012,1,1006,7,812.7,521.9,10,.,FALSE,0.46,46.57,46.19,1022,814.2,504.2,1,41.79,798.8,520.5,1013,.
SRC01TE1,right,0,right,412,north_west,south_east,right,643,1,north_west,38,NONE,1189,2,167,1023,808.7,501.7,.,.,.,.,.,.,.,.,.,.,.,.,.,.,NONE
SRC01TE1,right,0,right,369,north_west,south_east,right,534,1,north_west,39,NONE,1037,1,1031,7,844.9,522.1,.,.,.,.,.,.,.,.,.,.,.,.,.,.,.
SRC01TE1,left,0,left,475,north_west,south_east,left,531,1,north_west,40,NONE,1003,1,997,7,848.7,531.8,19,LEFT,FALSE,0.98,149.42,51.68,1022,815.7,524.7,1,70.89,856.7,549,1004,.
SRC01TE1,left,0,left,475,north_west,south_east,left,531,1,north_west,40,NONE,1146,2,124,1023,808.4,525,.,.,.,.,.,.,.,.,.,.,.,.,.,.,NONE
SRC01TE1,right,0,right,509,north_west,south_east,right,550,1,south_east,41,NONE,1071,1,1065,7,844.7,506.2,20,RIGHT,FALSE,0.79,5.98,39.49,1091,891.4,500.6,1,73.46,853.3,504.6,1072,.
SRC01TE1,right,0,right,509,north_west,south_east,right,550,1,south_east,41,NONE,1192,2,101,1092,878.1,502.2,.,.,.,.,.,.,.,.,.,.,.,.,.,.,NONE
SRC01TE1,left,0,left,782,north_west,south_east,left,516,1,south_west,42,NONE,84,1,78,7,839.3,527.1,9,.,FALSE,0.41,178.85,45.6,93,813.7,528.1,1,43.2,833.6,528.5,85,.
SRC01TE1,left,0,left,782,north_west,south_east,left,516,1,south_west,42,NONE,1434,2,1341,94,815.5,506.4,.,.,.,.,.,.,.,.,.,.,.,.,.,.,NONE
SRC01TE1,right,0,right,293,north_west,south_east,right,593,1,north_east,43,NONE,887,1,881,7,835.5,542.5,21,.,FALSE,0.2,73.6,9.39,908,836.6,535.1,1,49.49,833.9,544.3,888,.
SRC01TE1,right,0,right,293,north_west,south_east,right,593,1,north_east,43,NONE,1022,2,114,909,832.7,537,.,.,.,.,.,.,.,.,.,.,.,.,.,.,NONE
SRC01TE1,left,0,left,721,north_west,south_east,right,702,0,north_west,44,NONE,1101,1,1095,7,839.3,515.4,35,LEFT,FALSE,2.88,-160.88,82.28,1136,711.6,538.6,1,137.05,843.7,492.7,1102,.
SRC01TE1,left,0,left,721,north_west,south_east,right,702,0,north_west,44,NONE,1262,2,126,1137,719.2,535.3,27,RIGHT,FALSE,2.97,22.51,109.95,1289,849.2,479.3,2,190.05,716.2,534.6,1263,NONE
SRC01TE1,left,0,left,721,north_west,south_east,right,702,0,north_west,44,NONE,1466,3,177,1290,835.4,483.5,8,.,FALSE,0.34,34.82,42.79,1474,853.4,473.9,3,35.44,839.8,483.4,1467,NONE
SRC01TE1,left,0,left,721,north_west,south_east,right,702,0,north_west,44,NONE,1562,4,88,1475,844.9,470.8,.,.,.,.,.,.,.,.,.,.,.,.,.,.,NONE
SRC01TE1,left,0,left,254,north_west,south_east,left,814,1,north_west,45,NONE,1202,1,1196,7,831.6,533.9,.,.,.,.,.,.,.,.,.,.,.,.,.,.,.
SRC01TE1,left,0,left,302,north_west,south_east,left,622,1,south_east,46,NONE,915,1,909,7,846.6,533.5,21,RIGHT,FALSE,0.82,-4.62,38.91,936,876.9,535.2,1,78.07,837.4,532,916,.
SRC01TE1,left,0,left,302,north_west,south_east,left,622,1,south_east,46,NONE,1058,2,122,937,857.5,531.1,.,.,.,.,.,.,.,.,.,.,.,.,.,.,NONE
SRC01TE1,left,0,left,483,north_west,south_east,left,573,1,south_east,47,NONE,858,1,852,7,840,518.1,26,RIGHT,FALSE,2.33,-18.56,89.67,884,939.9,549.4,1,148.65,832.6,513.3,859,.
SRC01TE1,left,0,left,483,north_west,south_east,left,573,1,south_east,47,NONE,1020,2,136,885,923.3,549.4,24,LEFT,FALSE,2.19,151.17,91.3,1044,827.2,500.3,2,136.58,920.3,551.7,1021,NONE
SRC01TE1,left,0,left,483,north_west,south_east,left,573,1,south_east,47,NONE,1188,3,144,1045,820.9,503.2,.,.,.,.,.,.,.,.,.,.,.,.,.,.,NONE
SRC01TE1,left,0,left,269,north_west,south_east,left,702,1,north_east,48,NONE,801,1,795,7,846.4,527.4,20,RIGHT,FALSE,1.47,25.51,73.34,821,914.2,488,1,92.78,850,518.7,802,.
SRC01TE1,left,0,left,269,north_west,south_east,left,702,1,north_east,48,NONE,946,2,125,822,899.6,491.3,17,LEFT,FALSE,1.07,-165.59,62.74,963,843.7,507.6,2,81.73,893.8,494.7,947,NONE
SRC01TE1,left,0,left,269,north_west,south_east,left,702,1,north_east,48,NONE,1112,3,149,964,846,508.6,.,.,.,.,.,.,.,.,.,.,.,.,.,.,NONE
SRC01TE1,left,0,left,365,north_west,south_east,left,566,1,south_east,49,NONE,988,1,982,7,820.9,515,14,RIGHT,FALSE,0.61,5.01,43.76,1002,840.8,508.6,1,47.81,811.2,511.2,989,.
SRC01TE1,left,0,left,365,north_west,south_east,left,566,1,south_east,49,NONE,1066,2,64,1003,829.2,506.7,.,.,.,.,.,.,.,.,.,.,.,.,.,.,NONE
SRC01TE1,left,0,left,447,north_west,south_east,left,679,1,north_east,50,NONE,973,1,967,7,836.1,525.2,19,UP,FALSE,0.58,64.2,30.67,992,840.7,497.1,1,50.97,828.4,522.6,974,.
SRC01TE1,left,0,left,447,north_west,south_east,left,679,1,north_east,50,NONE,1260,2,268,993,825.7,505.7,.,.,.,.,.,.,.,.,.,.,.,.,.,.,NONE
SRC01TE1,right,0,right,356,north_west,south_east,right,616,1,south_west,51,AFTER,929,1,923,7,836.4,516.9,177,UP,TRUE,1.42,82.75,8.04,1106,836.3,435.6,1,851.43,827.6,504.1,930,.
SRC01TE1,right,0,right,422,north_west,south_east,None,1002,0,south_east,52,NONE,1000,1,994,7,839.2,524.1,17,RIGHT,FALSE,0.84,3.09,49.44,1017,873.8,517,1,66.99,833.1,519.2,1001,.
SRC01TE1,right,0,right,422,north_west,south_east,None,1002,0,south_east,52,NONE,1561,2,544,1018,849.7,519.7,.,.,.,.,.,.,.,.,.,.,.,.,.,.,NONE
SRC01TE1,right,0,right,598,north_west,south_east,right,591,1,north_west,53,NONE,1323,1,1317,7,833.3,524.3,.,.,.,.,.,.,.,.,.,.,.,.,.,.,.
SRC01TE1,left,0,left,642,north_west,south_east,left,565,1,north_east,54,NONE,185,1,179,7,859.4,529.8,7,.,FALSE,0.28,174.18,40.56,192,842.9,533.3,1,35.35,856.6,534.7,186,.
SRC01TE1,left,0,left,642,north_west,south_east,left,565,1,north_east,54,NONE,1341,2,1149,193,830.3,542.9,.,.,.,.,.,.,.,.,.,.,.,.,.,.,NONE
SRC01TE1,left,0,left,587,north_west,south_east,left,651,1,north_east,55,NONE,1149,1,1143,7,842.7,542.3,22,.,FALSE,0.37,62.1,16.83,1171,856.3,522.6,1,61.25,847.9,538.5,1150,.
SRC01TE1,left,0,left,587,north_west,south_east,left,651,1,north_east,55,NONE,1372,2,201,1172,843.8,532.3,.,.,.,.,.,.,.,.,.,.,.,.,.,.,NONE
SRC01TE1,right,0,right,448,north_west,south_east,right,534,1,south_east,56,NONE,1116,1,1110,7,832.1,563.7,.,.,.,.,.,.,.,.,.,.,.,.,.,.,.
SRC01TE1,left,0,left,384,north_west,south_east,left,709,1,north_west,57,NONE,905,1,899,7,841.9,519.6,21,LEFT,FALSE,1.23,155.15,58.75,926,778.5,487.3,1,80.68,832.8,512.5,906,.
SRC01TE1,left,0,left,384,north_west,south_east,left,709,1,north_west,57,NONE,1106,2,180,927,768.2,483.8,21,RIGHT,FALSE,1.54,-17.48,73.39,1127,836.5,504.9,2,111.26,765.2,482.4,1107,NONE
SRC01TE1,left,0,left,384,north_west,south_east,left,709,1,north_west,57,NONE,1228,3,101,1128,823.4,503,.,.,.,.,.,.,.,.,.,.,.,.,.,.,NONE
SRC01TE1,right,0,right,751,north_west,south_east,right,531,1,south_east,58,NONE,1417,1,1411,7,840.6,527.9,.,.,.,.,.,.,.,.,.,.,.,.,.,.,.
SRC01TE1,right,0,right,784,north_west,south_east,right,724,1,south_east,59,NONE,1195,1,1189,7,824.1,533.3,22,RIGHT,FALSE,1.65,-17.18,74.95,1217,891.9,552.5,1,113.69,815.5,528.8,1196,.
SRC01TE1,right,0,right,784,north_west,south_east,right,724,1,south_east,59,NONE,1345,2,128,1218,869.4,549,16,LEFT,FALSE,0.93,154.64,58.19,1361,827.6,536,2,70.36,868.4,555.4,1346,NONE
SRC01TE1,right,0,right,784,north_west,south_east,right,724,1,south_east,59,NONE,1643,3,282,1362,821.8,541.8,.,.,.,.,.,.,.,.,.,.,.,.,.,.,NONE
SRC01TE1,right,0,right,204,north_west,south_east,right,600,1,south_west,60,NONE,944,1,938,7,841.1,519.9,.,.,.,.,.,.,.,.,.,.,.,.,.,.,.
SRC01TE1,left,0,left,648,north_west,south_east,None,1002,0,north_west,61,NONE,1312,1,1306,7,843.7,542.5,16,RIGHT,FALSE,0.85,10.65,52.84,1328,897.4,533.5,1,65.72,857.1,541.1,1313,.
SRC01TE1,left,0,left,648,north_west,south_east,None,1002,0,north_west,61,NONE,1494,2,166,1329,881.3,532.4,9,.,FALSE,0.4,161.6,44.91,1503,859,527.1,2,40.32,877.6,533.3,1495,NONE
SRC01TE1,left,0,left,648,north_west,south_east,None,1002,0,north_west,61,NONE,1787,3,284,1504,862.3,524.3,.,.,.,.,.,.,.,.,.,.,.,.,.,.,NONE
SRC01TE1,left,0,left,781,north_west,south_east,left,510,1,south_east,62,NONE,1370,1,1364,7,826.2,545.2,22,RIGHT,FALSE,0.62,20.99,28.41,1392,848.6,543.3,1,70.32,820.3,554.2,1371,.
SRC01TE1,left,0,left,781,north_west,south_east,left,510,1,south_east,62,NONE,1432,2,40,1393,838.7,546.5,.,.,.,.,.,.,.,.,.,.,.,.,.,.,NONE
SRC01TE1,left,0,left,483,north_west,south_east,left,467,1,south_east,63,NONE,1084,1,1078,7,844.2,541.6,.,.,.,.,.,.,.,.,.,.,.,.,.,.,.
SRC01TE1,right,0,right,767,north_west,south_east,right,430,1,south_west,64,NONE,1338,1,1332,7,840,521.9,.,.,.,.,.,.,.,.,.,.,.,.,.,.,.
SRC01TE1,right,0,right,380,north_west,south_east,right,817,1,north_west,65,NONE,114,1,108,7,862.5,532.4,9,.,FALSE,0.41,171.97,45.81,123,838.5,531.9,1,41.77,858.3,534.7,115,.
SRC01TE1,right,0,right,380,north_west,south_east,right,817,1,north_west,65,NONE,759,2,636,124,832.7,536.4,22,LEFT,FALSE,1.45,-178.38,65.91,781,759.1,545.3,2,96.65,829.4,543.3,760,NONE
SRC01TE1,right,0,right,380,north_west,south_east,right,817,1,north_west,65,NONE,949,3,168,782,759.8,543.7,22,RIGHT,FALSE,1.64,8.22,74.52,971,833.9,530.3,3,116.51,755.2,541.7,950,NONE
SRC01TE1,right,0,right,380,north_west,south_east,right,817,1,north_west,65,NONE,1340,4,369,972,816.3,535.9,.,.,.,.,.,.,.,.,.,.,.,.,.,.,NONE
SRC01TE1,right,0,right,743,north_west,south_east,left,861,0,north_west,66,NONE,1321,1,1315,7,841.8,547.1,17,UP,FALSE,0.91,118.97,53.34,1338,814.4,509.1,1,59.81,835.7,547.7,1322,.
SRC01TE1,right,0,right,743,north_west,south_east,left,861,0,north_west,66,NONE,1544,2,206,1339,807.5,520.2,18,RIGHT,FALSE,1.09,-4.78,60.35,1562,859.8,527,2,83.78,807.3,522.6,1545,NONE
SRC01TE1,right,0,right,743,north_west,south_east,left,861,0,north_west,66,NONE,1744,3,182,1563,845.5,529.2,.,.,.,.,.,.,.,.,.,.,.,.,.,.,NONE
SRC01TE1,right,0,right,653,north_west,south_east,right,697,1,north_east,67,NONE,1210,1,1204,7,844.7,516.3,22,RIGHT,FALSE,1.38,10.93,62.62,1232,909.9,492.9,1,91.65,844.3,505.6,1211,.
SRC01TE1,right,0,right,653,north_west,south_east,right,697,1,north_east,67,NONE,1445,2,213,1233,887.5,496.7,39,LEFT,FALSE,0.94,179.25,24.16,1484,838.2,499.2,2,97,883.9,499.8,1446,NONE
SRC01TE1,right,0,right,738,north_west,south_east,right,474,1,south_west,68,NONE,1112,1,1106,7,824.8,527.1,28,LEFT,FALSE,2.6,-164.02,92.97,1140,697.6,569.9,1,139.72,819.1,535,1113,.
SRC01TE1,right,0,right,738,north_west,south_east,right,474,1,south_west,68,NONE,1269,2,129,1141,700.6,574.3,29,RIGHT,FALSE,3.14,19.69,108.22,1298,840.3,527.4,2,196.41,696.7,578.9,1270,NONE
SRC01TE1,right,0,right,738,north_west,south_east,right,474,1,south_west,68,NONE,1346,3,48,1299,823.1,527,.,.,.,.,.,.,.,.,.,.,.,.,.,.,NONE
SRC01TE1,right,0,right,479,north_west,south_east,right,573,1,south_east,69,NONE,851,1,845,7,835.3,507.6,19,LEFT,FALSE,1.17,-169.76,61.53,870,771.3,516.3,1,84.01,827.1,506.2,852,.
SRC01TE1,right,0,right,479,north_west,south_east,right,573,1,south_east,69,NONE,1016,2,146,871,774.8,522.3,21,RIGHT,FALSE,1.42,13.71,67.41,1037,836.8,509.9,2,106.41,770.1,526.2,1017,NONE
SRC01TE1,right,0,right,479,north_west,south_east,right,573,1,south_east,69,NONE,1187,3,150,1038,817.9,515.9,.,.,.,.,.,.,.,.,.,.,.,.,.,.,NONE
SRC01TE1,right,0,right,695,north_west,south_east,right,671,1,north_east,70,NONE,80,1,74,7,846.3,525.7,7,.,FALSE,0.31,-3.38,44.85,87,867.3,531,1,37.76,852.1,530.1,81,.
SRC01TE1,right,0,right,695,north_west,south_east,right,671,1,north_east,70,NONE,1263,2,1176,88,871.3,541.5,6,.,FALSE,0.24,140.59,40.47,1269,866.7,536.4,2,30.18,875.8,543.9,1264,NONE
SRC01TE1,right,0,right,695,north_west,south_east,right,671,1,north_east,70,NONE,1507,3,238,1270,859.8,530.5,.,.,.,.,.,.,.,.,.,.,.,.,.,.,NONE
SRC01TE1,left,0,left,425,north_west,south_east,left,571,1,south_east,71,NONE,877,1,871,7,851.9,518.3,24,RIGHT,FALSE,1.46,-8.43,60.79,901,928.2,510.1,1,117.93,858.2,499.7,878,.
SRC01TE1,left,0,left,425,north_west,south_east,left,571,1,south_east,71,NONE,1062,2,161,902,913.1,510.2,18,LEFT,FALSE,1.18,162.77,65.6,1080,859.4,494.6,2,92.15,914.1,511.6,1063,NONE
SRC01TE1,left,0,left,425,north_west,south_east,left,571,1,south_east,71,NONE,1137,3,57,1081,867.8,497.7,.,.,.,.,.,.,.,.,.,.,.,.,.,.,NONE
SRC01TE1,left,0,left,455,north_west,south_east,right,667,0,north_west,72,NONE,971,1,965,7,838.5,519.2,24,LEFT,FALSE,1.53,146.54,63.75,995,762.1,478.3,1,75.05,824,519.3,972,.
SRC01TE1,left,0,left,455,north_west,south_east,right,667,0,north_west,72,NONE,1167,2,172,996,748.1,479.9,22,RIGHT,FALSE,1.91,-16.19,86.86,1189,833.5,507.1,2,143.23,744.5,481.2,1168,NONE
SRC01TE1,left,0,left,455,north_west,south_east,right,667,0,north_west,72,NONE,1250,3,61,1190,818.1,499.9,.,.,.,.,.,.,.,.,.,.,.,.,.,.,NONE
SRC01TE1,left,0,left,305,north_west,south_east,left,513,1,south_west,73,NONE,933,1,927,7,844.1,514.6,20,.,FALSE,0.11,17.75,5.74,953,841.6,503.7,1,29.04,836.3,505.4,934,.
SRC01TE1,left,0,left,296,north_west,south_east,left,489,1,south_west,74,NONE,717,1,711,7,835.5,537.8,24,LEFT,FALSE,2,-169.22,83.34,741,739.2,555.6,1,137.89,834.6,537.4,718,.
SRC01TE1,left,0,left,296,north_west,south_east,left,489,1,south_west,74,NONE,855,2,114,742,742.4,552.1,23,RIGHT,FALSE,2.13,15.59,92.42,878,838.8,523.4,2,158.1,739.4,551.2,856,NONE
SRC01TE1,left,0,left,296,north_west,south_east,left,489,1,south_west,74,NONE,921,3,43,879,826.5,523.3,.,.,.,.,.,.,.,.,.,.,.,.,.,.,NONE
SRC01TE1,left,0,left,706,north_west,south_east,left,347,1,south_west,75,NONE,1186,1,1180,7,835.2,518.4,.,.,.,.,.,.,.,.,.,.,.,.,.,.,.
SRC01TE1,right,0,right,761,north_west,south_east,right,666,1,north_east,76,NONE,431,1,425,7,835.4,525.5,15,.,FALSE,0.34,-170.67,22.85,446,811,524.6,1,38.91,827.4,521.9,432,.
SRC01TE1,right,0,right,761,north_west,south_east,right,666,1,north_east,76,NONE,1201,2,755,447,809.2,514.3,21,RIGHT,FALSE,0.74,25.78,35.37,1222,840.7,490.6,2,71.73,808.3,506.3,1202,NONE
SRC01TE1,right,0,right,761,north_west,south_east,right,666,1,north_east,76,NONE,1448,3,226,1223,833,496.3,9,.,FALSE,0.45,171.41,50.51,1457,809.1,495.6,3,43.66,830.9,498.9,1449,NONE
SRC01TE1,right,0,right,761,north_west,south_east,right,666,1,north_east,76,NONE,1563,4,106,1458,810.8,499.6,.,.,.,.,.,.,.,.,.,.,.,.,.,.,NONE
SRC01TE1,left,0,left,571,north_west,south_east,left,431,1,south_west,77,NONE,960,1,954,7,844.1,549.4,24,LEFT,FALSE,1.98,-160.81,82.42,984,750.3,584.4,1,113.94,841,552.7,961,.
SRC01TE1,left,0,left,571,north_west,south_east,left,431,1,south_west,77,NONE,1100,2,116,985,735.2,584.9,38,RIGHT,FALSE,2.2,21.56,57.87,1138,827.6,545.1,2,159.02,728.3,584.5,1101,NONE
SRC01TE1,right,0,right,785,north_west,south_east,right,611,1,south_east,78,NONE,1399,1,1393,7,843.4,517.3,18,.,FALSE,0.27,4.83,14.94,1417,847.3,510.6,1,42.09,834.3,511.7,1400,.
SRC01TE1,right,0,right,785,north_west,south_east,right,611,1,south_east,78,NONE,1531,2,114,1418,841.2,513.1,.,.,.,.,.,.,.,.,.,.,.,.,.,.,NONE
SRC01TE1,left,0,left,211,north_west,south_east,left,570,1,south_east,79,NONE,838,1,832,7,833.3,512.9,7,.,FALSE,0.3,16.51,42.4,845,836.4,491.2,1,34.7,822.6,495.3,839,.
SRC01TE1,left,0,left,211,north_west,south_east,left,570,1,south_east,79,NONE,916,2,71,846,833.3,492.9,.,.,.,.,.,.,.,.,.,.,.,.,.,.,NONE
SRC01TE1,right,0,right,275,north_west,south_east,right,647,1,north_east,80,NONE,915,1,909,7,825.4,536.7,21,RIGHT,FALSE,0.62,24.74,29.73,936,853.2,518.2,1,71.06,825.7,530.9,916,.
SRC01TE1,right,0,right,275,north_west,south_east,right,647,1,north_east,80,NONE,1043,2,107,937,843.9,521.6,.,.,.,.,.,.,.,.,.,.,.,.,.,.,NONE
SRC01TE1,right,0,right,750,north_west,south_east,right,511,1,south_west,81,NONE,1153,1,1147,7,850.4,533.5,29,LEFT,FALSE,1.84,-161.27,63.36,1182,762.7,554.1,1,83.23,847.1,525.4,1154,.
SRC01TE1,right,0,right,750,north_west,south_east,right,511,1,south_west,81,NONE,1304,2,122,1183,763.2,560.3,26,RIGHT,FALSE,2.51,25.49,96.63,1330,866.7,512.9,2,164.08,756.6,565.5,1305,NONE
SRC01TE1,right,0,right,750,north_west,south_east,right,511,1,south_west,81,NONE,1403,3,73,1331,850.7,519.5,.,.,.,.,.,.,.,.,.,.,.,.,.,.,NONE
SRC01TE1,left,0,left,775,north_west,south_east,left,472,1,south_east,82,NONE,1169,1,1163,7,837.1,525,26,RIGHT,FALSE,2.17,-10.76,83.46,1195,942.7,546.6,1,134.1,839.2,526.9,1170,.
SRC01TE1,left,0,left,775,north_west,south_east,left,472,1,south_east,82,NONE,1327,2,132,1196,920.9,541.6,21,LEFT,FALSE,1.53,150.65,72.88,1348,854.1,503,2,104.02,918.8,539.5,1328,NONE
SRC01TE1,left,0,left,775,north_west,south_east,left,472,1,south_east,82,NONE,1378,3,30,1349,854.8,501.7,.,.,.,.,.,.,.,.,.,.,.,.,.,.,NONE
SRC01TE1,left,0,left,780,north_west,south_east,left,447,1,south_west,83,NONE,391,1,385,7,837.9,526.5,12,.,FALSE,0.46,163.73,37.95,403,828.4,528.6,1,43.98,849.6,534.8,392,.
SRC01TE1,left,0,left,780,north_west,south_east,left,447,1,south_west,83,NONE,1201,2,798,404,823.7,534.4,15,LEFT,FALSE,0.96,-150.56,63.77,1216,774.5,566.1,2,69.7,814.9,543.2,1202,NONE
SRC01TE1,left,0,left,780,north_west,south_east,left,447,1,south_west,83,NONE,1363,3,147,1217,769.9,567.9,.,.,.,.,.,.,.,.,.,.,.,.,.,.,NONE
SRC01TE1,right,0,right,722,north_west,south_east,right,491,1,south_east,84,NONE,102,1,96,7,843.5,524.6,17,.,FALSE,0.33,2.53,19.18,119,863.5,522.8,1,39.7,847.7,523.5,103,.
SRC01TE1,right,0,right,722,north_west,south_east,right,491,1,south_east,84,NONE,1347,2,1228,120,865.4,508.5,.,.,.,.,.,.,.,.,.,.,.,.,.,.,NONE
SRC01TE1,left,0,left,513,north_west,south_east,left,820,1,north_west,85,NONE,941,1,935,7,833.9,528.3,7,.,FALSE,0.3,171.61,42.28,948,829,531.8,1,34.17,843.2,533.9,942,.
SRC01TE1,left,0,left,513,north_west,south_east,left,820,1,north_west,85,NONE,1107,2,159,949,827.2,535.6,17,RIGHT,FALSE,1.03,9.2,60.57,1124,877,528.6,2,75.27,827.7,536.6,1108,NONE
SRC01TE1,left,0,left,513,north_west,south_east,left,820,1,north_west,85,NONE,1394,3,270,1125,858,534.3,7,.,FALSE,0.3,146.91,42.54,1401,843.5,529.5,3,31.98,855.6,537.4,1395,NONE
SRC01TE1,left,0,left,513,north_west,south_east,left,820,1,north_west,85,NONE,1466,4,65,1402,846.8,528.3,.,.,.,.,.,.,.,.,.,.,.,.,.,.,NONE
SRC01TE1,right,0,right,775,north_west,south_east,right,677,1,north_east,86,NONE,1262,1,1256,7,836.6,547.8,23,RIGHT,FALSE,1.38,30.94,59.79,1285,893.9,515.6,1,96.19,836.7,550,1263,.
SRC01TE1,right,0,right,775,north_west,south_east,right,677,1,north_east,86,NONE,1444,2,159,1286,868.9,516.5,15,LEFT,FALSE,0.83,-166.44,55,1459,826,522.9,2,63.96,864.9,513.5,1445,NONE
SRC01TE1,right,0,right,775,north_west,south_east,right,677,1,north_east,86,NONE,1595,3,136,1460,837.1,517.8,.,.,.,.,.,.,.,.,.,.,.,.,.,.,NONE
SRC01TE1,right,0,right,441,north_west,south_east,right,715,1,north_west,87,NONE,939,1,933,7,842.9,532.2,18,UP,FALSE,1.01,92.82,55.85,957,835.4,489.5,1,67.36,837.8,538.3,940,.
SRC01TE1,right,0,right,441,north_west,south_east,right,715,1,north_west,87,NONE,1110,2,153,958,816.9,498.1,14,RIGHT,FALSE,0.84,-21.81,60.12,1124,849.9,514,2,64.67,812,498.8,1111,NONE
SRC01TE1,right,0,right,441,north_west,south_east,right,715,1,north_west,87,NONE,1291,3,167,1125,837.2,521.7,.,.,.,.,.,.,.,.,.,.,.,.,.,.,NONE
SRC01TE1,left,0,left,207,north_west,south_east,left,525,1,south_west,88,NONE,866,1,860,7,830.5,539.7,.,.,.,.,.,.,.,.,.,.,.,.,.,.,.
SRC01TE1,right,0,right,262,north_west,south_east,left,800,0,north_west,89,NONE,433,1,427,7,840.2,524.4,16,.,FALSE,0.22,57.31,13.6,449,845.3,512.8,1,30.3,839.6,521.7,434,.
SRC01TE1,right,0,right,262,north_west,south_east,left,800,0,north_west,89,NONE,796,2,347,450,841.3,522.1,21,LEFT,FALSE,1.16,138.08,55.29,817,802.2,494.4,2,60.67,844.1,532.1,797,NONE
SRC01TE1,right,0,right,262,north_west,south_east,left,800,0,north_west,89,NONE,979,3,162,818,793.9,494.7,20,RIGHT,FALSE,1.5,-21.08,75.24,999,861.2,518,3,104.33,793.1,491.7,980,NONE
SRC01TE1,right,0,right,262,north_west,south_east,left,800,0,north_west,89,NONE,1196,4,197,1000,851.3,518.9,.,.,.,.,.,.,.,.,.,.,.,.,.,.,NONE
SRC01TE1,left,0,left,685,north_west,south_east,right,520,0,north_west,90,NONE,1339,1,1333,7,840.7,523.1,.,.,.,.,.,.,.,.,.,.,.,.,.,.,.
SRC01TE1,left,0,left,689,north_west,south_east,left,772,1,north_west,91,NONE,1594,1,1588,7,852.2,534.8,.,.,.,.,.,.,.,.,.,.,.,.,.,.,.
SRC01TE1,left,0,left,598,north_west,south_east,left,565,1,north_east,92,NONE,1306,1,1300,7,830.3,548.8,.,.,.,.,.,.,.,.,.,.,.,.,.,.,.
SRC01TE1,right,0,right,236,north_west,south_east,right,625,1,south_west,93,NONE,994,1,988,7,830,527.2,.,.,.,.,.,.,.,.,.,.,.,.,.,.,.
SRC01TE1,left,0,left,739,north_west,south_east,left,632,1,south_east,94,NONE,1506,1,1500,7,846.2,515.9,.,.,.,.,.,.,.,.,.,.,.,.,.,.,.
SRC01TE1,left,0,left,377,north_west,south_east,left,514,1,south_west,95,NONE,915,1,909,7,836.7,537.1,19,.,FALSE,0.11,128.39,5.94,934,832.2,528.3,1,42.87,835.6,532.6,916,.
SRC01TE1,left,0,left,377,north_west,south_east,left,514,1,south_west,95,NONE,1026,2,92,935,826.2,530.2,.,.,.,.,.,.,.,.,.,.,.,.,.,.,NONE
SRC01TE1,left,0,left,218,north_west,south_east,None,1002,0,north_west,96,NONE,212,1,206,7,842.1,526.5,7,.,FALSE,0.28,-176.17,39.56,219,822.4,527.6,1,33.98,835.8,526.7,213,.
SRC01TE1,left,0,left,218,north_west,south_east,None,1002,0,north_west,96,NONE,794,2,575,220,821.2,526,20,.,FALSE,0.46,37.02,23.24,814,837.5,508,2,49.69,819.5,521.6,795,NONE
SRC01TE1,left,0,left,218,north_west,south_east,None,1002,0,north_west,96,NONE,1355,3,541,815,825.8,508.4,.,.,.,.,.,.,.,.,.,.,.,.,.,.,NONE
SRC01TE1,left,0,left,317,north_west,south_east,left,516,1,south_east,97,NONE,769,1,763,7,838.7,528.4,25,RIGHT,FALSE,1.81,-10.24,72.58,794,926.1,549.6,1,142.47,839.5,533.9,770,.
SRC01TE1,left,0,left,317,north_west,south_east,left,516,1,south_east,97,NONE,934,2,140,795,906.2,549.1,42,LEFT,FALSE,1.3,164.6,30.96,976,847.2,536.5,2,104.26,908,553.3,935,NONE
SRC01TE1,right,0,right,215,north_west,south_east,left,676,0,north_west,98,NONE,1027,1,1021,7,824.6,498.7,.,.,.,.,.,.,.,.,.,.,.,.,.,.,.
SRC01TE1,right,0,right,614,north_west,south_east,right,718,1,north_west,99,NONE,412,1,406,7,834.4,542.8,17,.,FALSE,0.29,117.93,16.83,429,824.9,536.2,1,35.56,831.4,548.5,413,.
SRC01TE1,right,0,right,614,north_west,south_east,right,718,1,north_west,99,NONE,1466,2,1037,430,821.6,539.4,.,.,.,.,.,.,.,.,.,.,.,.,.,.,NONE
SRC01TE1,left,0,left,618,north_west,south_east,left,436,1,north_east,100,NONE,112,1,106,7,842.6,530.6,20,RIGHT,FALSE,0.65,7.49,32.34,132,875.8,530.7,1,66.54,844.7,534.8,113,.
SRC01TE1,left,0,left,618,north_west,south_east,left,436,1,north_east,100,NONE,263,2,131,133,866.9,539.4,12,LEFT,FALSE,0.57,-174.62,47.46,275,836,548.6,2,48.44,863.5,546,264,NONE
SRC01TE1,left,0,left,618,north_west,south_east,left,436,1,north_east,100,NONE,1110,3,835,276,840,557.1,20,RIGHT,FALSE,1.23,24.65,61.59,1130,890.2,534.3,3,79.16,835.9,559.3,1111,NONE
SRC01TE1,left,0,left,618,north_west,south_east,left,436,1,north_east,100,NONE,1186,4,56,1131,876.4,537.3,.,.,.,.,.,.,.,.,.,.,.,.,.,.,NONE
SRC01TE1,right,0,right,606,north_west,south_east,right,627,1,south_east,101,NONE,54,1,48,7,840.2,524.1,17,LEFT,FALSE,0.9,178.43,53.02,71,794.9,523.6,1,66.61,838.6,524.8,55,.
SRC01TE1,right,0,right,606,north_west,south_east,right,627,1,south_east,101,NONE,207,2,136,72,806.5,537.5,15,RIGHT,FALSE,0.87,1.75,58.17,222,849.5,548.8,2,70.23,807.2,550.1,208,NONE
SRC01TE1,right,0,right,606,north_west,south_east,right,627,1,south_east,101,NONE,1366,3,1144,223,840,559.5,.,.,.,.,.,.,.,.,.,.,.,.,.,.,NONE
SRC01TE1,right,0,right,617,north_west,south_east,right,523,1,south_east,102,NONE,979,1,973,7,838.9,544.2,30,RIGHT,FALSE,2.97,-23.95,99.16,1009,970,591.2,1,196.02,838,532.4,980,.
SRC01TE1,right,0,right,617,north_west,south_east,right,523,1,south_east,102,NONE,1156,2,147,1010,949.4,577.5,24,LEFT,FALSE,2.54,149.75,105.81,1180,843.2,511,2,163.86,949.7,573.3,1157,NONE
SRC01TE1,right,0,right,617,north_west,south_east,right,523,1,south_east,102,NONE,1275,3,95,1181,832.7,510.8,.,.,.,.,.,.,.,.,.,.,.,.,.,.,NONE
SRC01TE1,left,0,left,638,north_west,south_east,left,486,1,south_west,103,NONE,1013,1,1007,7,844.4,542.3,20,DOWN,FALSE,1.33,-131.25,66.7,1033,798.2,597.7,1,87.82,840.9,548.8,1014,.
SRC01TE1,left,0,left,638,north_west,south_east,left,486,1,south_west,103,NONE,1173,2,140,1034,791.3,590.9,21,RIGHT,FALSE,1.7,39.74,81.13,1194,849.8,540.8,2,117.29,786.2,593.9,1174,NONE
SRC01TE1,left,0,left,638,north_west,south_east,left,486,1,south_west,103,NONE,1267,3,73,1195,837,544.5,.,.,.,.,.,.,.,.,.,.,.,.,.,.,NONE
SRC01TE1,left,0,left,659,north_west,south_east,left,513,1,north_west,104,NONE,172,1,166,7,845.1,520.7,19,LEFT,FALSE,0.69,-173.64,36.14,191,807.2,518.2,1,69.46,840.3,514.5,173,.
SRC01TE1,left,0,left,659,north_west,south_east,left,513,1,north_west,104,NONE,357,2,166,192,810.5,512.4,13,RIGHT,FALSE,0.68,13.03,51.93,370,842.6,502.6,2,54.57,810.7,510,358,NONE
SRC01TE1,left,0,left,659,north_west,south_east,left,513,1,north_west,104,NONE,1024,3,654,371,831.7,498.9,43,LEFT,FALSE,3.18,-164.02,73.94,1067,683.1,537.5,3,182.81,831.5,494.9,1025,NONE
SRC01TE1,left,0,left,659,north_west,south_east,left,513,1,north_west,104,NONE,1205,4,138,1068,668.8,546.1,30,RIGHT,FALSE,2.92,12.2,97.47,1235,806.5,520.7,4,184.3,667.6,550.8,1206,NONE
SRC01TE1,left,0,left,659,north_west,south_east,left,513,1,north_west,104,NONE,1284,5,49,1236,784.2,522.8,23,RIGHT,FALSE,2.5,26.48,108.56,1307,890,471.5,5,171.58,781.6,525.6,1285,NONE
SRC01TE1,right,0,right,366,north_west,south_east,left,622,0,north_east,105,NONE,1123,1,1117,7,848.4,541.6,.,.,.,.,.,.,.,.,.,.,.,.,.,.,.
SRC01TE1,left,0,left,220,north_west,south_east,left,552,1,south_east,106,NONE,906,1,900,7,840.7,552.3,.,.,.,.,.,.,.,.,.,.,.,.,.,.,.
SRC01TE1,left,0,left,249,north_west,south_east,left,565,1,south_west,107,NONE,778,1,772,7,849,532.5,24,LEFT,FALSE,1.59,-178.96,66.25,802,770.7,545.5,1,95.93,847.8,544.1,779,.
SRC01TE1,left,0,left,249,north_west,south_east,left,565,1,south_west,107,NONE,920,2,118,803,781.1,549.8,28,RIGHT,FALSE,1.3,8.84,46.28,948,842.1,542,2,128.54,780,551.7,921,NONE
SRC01TE1,right,0,right,259,north_west,south_east,right,665,1,south_east,108,NONE,817,1,811,7,850.1,537,15,.,FALSE,0.38,37.06,25.49,832,860.9,525.8,1,34.28,846.1,537,818,.
SRC01TE1,right,0,right,259,north_west,south_east,right,665,1,south_east,108,NONE,1058,2,226,833,845.9,521.8,.,.,.,.,.,.,.,.,.,.,.,.,.,.,NONE
SRC01TE1,right,0,right,729,north_west,south_east,right,531,1,south_west,109,NONE,1307,1,1301,7,826.7,540.4,5,.,FALSE,0.19,38.03,38.74,1312,807.2,510.5,1,28.63,799.8,516.3,1308,.
SRC01TE1,right,0,right,729,north_west,south_east,right,531,1,south_west,109,NONE,1395,2,83,1313,804.5,511,.,.,.,.,.,.,.,.,.,.,.,.,.,.,NONE
SRC01TE1,left,0,left,591,north_west,south_east,left,517,1,south_west,110,NONE,1243,1,1237,7,832.3,531.8,.,.,.,.,.,.,.,.,.,.,.,.,.,.,.
SRC01TE1,right,0,right,254,north_west,south_east,left,773,0,north_west,111,NONE,378,1,372,7,840.4,528.4,6,.,FALSE,0.24,-1.97,39.89,384,852,531.9,1,32.79,840.4,531.5,379,.
SRC01TE1,right,0,right,254,north_west,south_east,left,773,0,north_west,111,NONE,1094,2,710,385,854.5,534.5,10,.,FALSE,0.5,175.27,49.86,1104,823.4,537.9,2,44.75,847.5,539.9,1095,NONE
SRC01TE1,right,0,right,254,north_west,south_east,left,773,0,north_west,111,NONE,1162,3,58,1105,827,536.4,.,.,.,.,.,.,.,.,.,.,.,.,.,.,NONE
SRC01TE1,right,0,right,376,north_west,south_east,right,462,1,south_west,112,NONE,981,1,975,7,834.5,526.2,.,.,.,.,.,.,.,.,.,.,.,.,.,.,.
SRC01TE1,right,0,right,245,north_west,south_east,right,617,1,south_east,113,NONE,144,1,138,7,827.5,531,12,RIGHT,FALSE,0.59,7.18,49.36,156,857.3,529.8,1,49.69,828.8,533.4,145,.
SRC01TE1,right,0,right,245,north_west,south_east,right,617,1,south_east,113,NONE,421,2,265,157,842.1,532.8,7,.,FALSE,0.29,171.55,41.99,428,827.1,537.2,2,32.53,841.2,539.3,422,NONE
SRC01TE1,right,0,right,245,north_west,south_east,right,617,1,south_east,113,NONE,658,3,230,429,835.1,544.6,23,RIGHT,FALSE,1.44,-0.24,62.75,681,907.3,547.7,3,111.76,837.3,547.4,659,NONE
SRC01TE1,right,0,right,245,north_west,south_east,right,617,1,south_east,113,NONE,833,4,152,682,889.8,545.1,17,LEFT,FALSE,1.04,169.43,61.32,850,839.9,530.8,4,77.1,889.6,540.1,834,NONE
SRC01TE1,right,0,right,245,north_west,south_east,right,617,1,south_east,113,NONE,994,5,144,851,847,531.9,.,.,.,.,.,.,.,.,.,.,.,.,.,.,NONE
SRC01TE1,left,0,left,668,north_west,south_east,left,470,1,south_east,114,NONE,1246,1,1240,7,840,535.4,28,.,FALSE,0.13,106.11,4.51,1274,837.5,523.1,1,31.55,839.2,529,1247,.
SRC01TE1,right,0,right,426,north_west,south_east,right,730,1,north_east,115,NONE,857,1,851,7,843.1,521.2,18,RIGHT,FALSE,0.82,15.99,45.64,875,880.8,505.6,1,71.15,842.5,516.6,858,.
SRC01TE1,right,0,right,426,north_west,south_east,right,730,1,north_east,115,NONE,950,2,75,876,869.6,508.7,15,LEFT,FALSE,0.89,167.38,59.02,965,827.1,501.6,2,66.54,869,511,951,NONE
SRC01TE1,right,0,right,426,north_west,south_east,right,730,1,north_east,115,NONE,1299,3,334,966,836.1,503.1,.,.,.,.,.,.,.,.,.,.,.,.,.,.,NONE
SRC01TE1,right,0,right,373,north_west,south_east,right,660,1,north_west,116,NONE,892,1,886,7,839.8,534.9,14,.,FALSE,0.5,102.91,35.59,906,828.8,506.5,1,39.68,834.2,530.1,893,.
SRC01TE1,right,0,right,373,north_west,south_east,right,660,1,north_west,116,NONE,1121,2,215,907,819.4,514.2,11,RIGHT,FALSE,0.59,-10.2,53.9,1132,848.8,521.7,2,49.02,820.5,516.6,1122,NONE
SRC01TE1,right,0,right,373,north_west,south_east,right,660,1,north_west,116,NONE,1166,3,34,1133,836.8,521.3,.,.,.,.,.,.,.,.,.,.,.,.,.,.,NONE
SRC01TE1,right,0,right,663,north_west,south_east,right,629,1,north_west,117,NONE,467,1,461,7,846.1,531.5,16,RIGHT,FALSE,0.85,-7.33,53.4,483,895.8,535.6,1,67.7,854.7,530.3,468,.
SRC01TE1,right,0,right,663,north_west,south_east,right,629,1,north_west,117,NONE,1427,2,944,484,884.6,526.8,.,.,.,.,.,.,.,.,.,.,.,.,.,.,NONE
SRC01TE1,right,0,right,762,north_west,south_east,right,518,1,south_west,118,NONE,1376,1,1370,7,834.7,526.6,7,.,FALSE,0.26,-178.66,37.71,1383,820.6,527.1,1,32.25,833.4,526.8,1377,.
SRC01TE1,right,0,right,762,north_west,south_east,right,518,1,south_west,118,NONE,1412,2,29,1384,821.3,522.9,.,.,.,.,.,.,.,.,.,.,.,.,.,.,NONE
SRC01TE1,left,0,left,566,north_west,south_east,left,540,1,south_west,119,NONE,1243,1,1237,7,827.6,523.8,.,.,.,.,.,.,.,.,.,.,.,.,.,.,.
SRC01TE2,left,0,left,397,north_west,south_east,right,556,0,south_east,0,NONE,1088,1,1082,7,837,522.2,.,.,.,.,.,.,.,.,.,.,.,.,.,.,.
SRC01TE2,left,0,left,653,north_west,south_east,left,467,1,north_west,1,NONE,1259,1,1253,7,850.4,530.2,.,.,.,.,.,.,.,.,.,.,.,.,.,.,.
SRC01TE2,right,0,right,541,north_west,south_east,right,579,1,north_west,2,NONE,1254,1,1248,7,819.7,529.9,.,.,.,.,.,.,.,.,.,.,.,.,.,.,.
SRC01TE2,right,0,right,794,north_west,south_east,right,502,1,north_west,3,NONE,1435,1,1429,7,825.8,536.3,.,.,.,.,.,.,.,.,.,.,.,.,.,.,.
SRC01TE2,right,0,right,633,north_west,south_east,right,437,1,south_west,4,NONE,1203,1,1197,7,824.1,537.1,.,.,.,.,.,.,.,.,.,.,.,.,.,.,.
SRC01TE2,left,0,left,453,north_west,south_east,left,554,1,south_east,5,NONE,1140,1,1134,7,848.7,514.9,.,.,.,.,.,.,.,.,.,.,.,.,.,.,.
SRC01TE2,left,0,left,522,north_west,south_east,left,399,1,south_west,6,NONE,1055,1,1049,7,836.3,537,.,.,.,.,.,.,.,.,.,.,.,.,.,.,.
SRC01TE2,right,0,right,232,north_west,south_east,right,469,1,south_west,7,NONE,835,1,829,7,840.6,525.2,.,.,.,.,.,.,.,.,.,.,.,.,.,.,.
SRC01TE2,left,0,left,424,north_west,south_east,left,504,1,south_east,8,NONE,392,1,386,7,830.5,530.1,18,.,FALSE,0.19,170.86,10.79,410,824.9,534.1,1,39.96,834.2,535.6,393,.
SRC01TE2,left,0,left,424,north_west,south_east,left,504,1,south_east,8,NONE,1074,2,664,411,839.6,536.8,.,.,.,.,.,.,.,.,.,.,.,.,.,.,NONE
SRC01TE2,right,0,right,575,north_west,south_east,right,469,1,south_east,9,NONE,1179,1,1173,7,840.8,537.3,.,.,.,.,.,.,.,.,.,.,.,.,.,.,.
SRC01TE2,left,0,left,566,north_west,south_east,left,404,1,south_east,10,NONE,1115,1,1109,7,829.3,514.7,.,.,.,.,.,.,.,.,.,.,.,.,.,.,.
SRC01TE2,left,0,left,618,north_west,south_east,left,485,1,south_west,11,NONE,1235,1,1229,7,849.7,529.5,.,.,.,.,.,.,.,.,.,.,.,.,.,.,.
SRC01TE2,right,0,right,549,north_west,south_east,left,633,0,north_east,12,NONE,1251,1,1245,7,844,518.2,18,.,FALSE,0.38,152.65,21.15,1269,824.4,497.4,1,46.29,840.8,505.9,1252,.
SRC01TE2,right,0,right,549,north_west,south_east,left,633,0,north_east,12,NONE,1319,2,50,1270,824.1,496.3,.,.,.,.,.,.,.,.,.,.,.,.,.,.,NONE
SRC01TE2,left,0,left,420,north_west,south_east,right,471,0,north_west,13,NONE,95,1,89,7,839.1,536,14,LEFT,FALSE,0.72,-167.95,51.35,109,804.6,546.5,1,54.88,838.7,539.2,96,.
SRC01TE2,left,0,left,420,north_west,south_east,right,471,0,north_west,13,NONE,302,2,193,110,810.7,549,7,.,FALSE,0.31,-2.7,43.64,309,826.3,552.3,2,34.97,811.5,551.6,303,NONE
SRC01TE2,left,0,left,420,north_west,south_east,right,471,0,north_west,13,NONE,1027,3,718,310,819.6,544.3,.,.,.,.,.,.,.,.,.,.,.,.,.,.,NONE
SRC01TE2,right,0,right,242,north_west,south_east,right,437,1,north_east,14,NONE,826,1,820,7,831.9,516.5,.,.,.,.,.,.,.,.,.,.,.,.,.,.,.
SRC01TE2,right,0,right,517,north_west,south_east,right,401,1,north_east,15,NONE,1052,1,1046,7,846.1,540.1,.,.,.,.,.,.,.,.,.,.,.,.,.,.,.
SRC01TE2,left,0,left,639,north_west,south_east,right,401,0,south_east,16,NONE,1179,1,1173,7,843.3,526.7,.,.,.,.,.,.,.,.,.,.,.,.,.,.,.
SRC01TE2,left,0,left,514,north_west,south_east,left,600,1,north_east,17,NONE,1247,1,1241,7,837.4,522.4,.,.,.,.,.,.,.,.,.,.,.,.,.,.,.
SRC01TE2,right,0,right,511,north_west,south_east,right,456,1,north_west,18,NONE,1035,1,1029,7,830.6,523.9,14,RIGHT,FALSE,0.7,16.05,49.96,1049,867.5,494,1,53.19,834.9,503.4,1036,.
SRC01TE2,right,0,right,511,north_west,south_east,right,456,1,north_west,18,NONE,1101,2,52,1050,854,491.2,.,.,.,.,.,.,.,.,.,.,.,.,.,.,NONE
SRC01TE2,left,0,left,694,north_west,south_east,left,496,1,south_east,19,NONE,1338,1,1332,7,827.7,510.5,.,.,.,.,.,.,.,.,.,.,.,.,.,.,.
SRC01TE2,left,0,left,741,north_west,south_east,left,647,1,north_east,20,NONE,1528,1,1522,7,829.4,527.7,.,.,.,.,.,.,.,.,.,.,.,.,.,.,.
SRC01TE2,left,0,left,728,north_west,south_east,left,440,1,south_west,21,NONE,1143,1,1137,7,825.5,530.7,13,LEFT,FALSE,0.75,-160.31,57.78,1156,781.4,526.3,1,60.9,815.7,514,1144,.
SRC01TE2,left,0,left,728,north_west,south_east,left,440,1,south_west,21,NONE,1287,2,131,1157,767.3,523.8,20,RIGHT,FALSE,1.49,17.58,74.62,1307,831.9,497.8,2,109.09,762.9,519.7,1288,NONE
SRC01TE2,left,0,left,416,north_west,south_east,left,468,1,south_east,22,NONE,848,1,842,7,836.3,535.4,22,RIGHT,FALSE,0.97,4.63,44.01,870,879.9,528.6,1,91.69,833.1,532.4,849,.
SRC01TE2,left,0,left,416,north_west,south_east,left,468,1,south_east,22,NONE,1005,2,135,871,863.4,530.8,.,.,.,.,.,.,.,.,.,.,.,.,.,.,NONE
SRC01TE2,left,0,left,669,north_west,south_east,left,430,1,south_west,23,NONE,247,1,241,7,859.4,536.9,15,LEFT,FALSE,0.75,171.92,49.7,262,823,537.9,1,58.13,858.8,543,248,.
SRC01TE2,left,0,left,669,north_west,south_east,left,430,1,south_west,23,NONE,421,2,159,263,833.4,538.1,9,.,FALSE,0.44,-5.69,48.35,430,857,540.4,2,42.22,836,538.3,422,NONE
SRC01TE2,left,0,left,669,north_west,south_east,left,430,1,south_west,23,NONE,1239,3,809,431,843.2,533.9,.,.,.,.,.,.,.,.,.,.,.,.,.,.,NONE
SRC01TE2,left,0,left,456,north_west,south_east,left,554,1,north_east,24,NONE,1146,1,1140,7,827.5,520.8,.,.,.,.,.,.,.,.,.,.,.,.,.,.,.
SRC01TE2,left,0,left,207,north_west,south_east,left,465,1,north_east,25,NONE,806,1,800,7,835.3,542.2,.,.,.,.,.,.,.,.,.,.,.,.,.,.,.
SRC01TE2,right,0,right,725,north_west,south_east,right,505,1,south_west,26,NONE,1362,1,1356,7,840.7,524.3,.,.,.,.,.,.,.,.,.,.,.,.,.,.,.
SRC01TE2,right,0,right,443,north_west,south_east,right,724,1,south_east,27,NONE,461,1,455,7,837.4,535.9,8,.,FALSE,0.4,9.88,49.45,469,839.7,530.3,1,40.91,820.8,533.6,462,.
SRC01TE2,right,0,right,443,north_west,south_east,right,724,1,south_east,27,NONE,1306,2,837,470,834.4,519.2,.,.,.,.,.,.,.,.,.,.,.,.,.,.,NONE
SRC01TE2,right,0,right,449,north_west,south_east,left,734,0,north_west,28,NONE,1319,1,1313,7,844.5,515.8,.,.,.,.,.,.,.,.,.,.,.,.,.,.,.
SRC01TE2,right,0,right,759,north_west,south_east,right,447,1,south_west,29,NONE,1338,1,1332,7,829.9,528,.,.,.,.,.,.,.,.,.,.,.,.,.,.,.
SRC01TE2,left,0,left,341,north_west,south_east,left,449,1,south_west,30,NONE,925,1,919,7,839.2,507.3,.,.,.,.,.,.,.,.,.,.,.,.,.,.,.
SRC01TE2,right,0,right,278,north_west,south_east,right,432,1,north_west,31,NONE,854,1,848,7,831,519,.,.,.,.,.,.,.,.,.,.,.,.,.,.,.
SRC01TE2,right,0,right,411,north_west,south_east,right,444,1,south_west,32,NONE,974,1,968,7,845.6,513.7,16,RIGHT,FALSE,0.76,2.65,47.22,990,891.1,497.6,1,64.64,854.5,499.3,975,.
SRC01TE2,right,0,right,419,north_west,south_east,right,587,1,south_east,33,NONE,133,1,125,9,863.3,524.9,12,LEFT,FALSE,0.59,171.52,48.82,145,833,520.7,1,48.65,861.1,524.9,134,.
SRC01TE2,right,0,right,419,north_west,south_east,right,587,1,south_east,33,NONE,1013,2,868,146,839.9,529.9,13,RIGHT,FALSE,0.7,1.18,53.78,1026,870.9,531.1,2,57.19,837,531.8,1014,NONE
SRC01TE2,right,0,right,419,north_west,south_east,right,587,1,south_east,33,NONE,1138,3,112,1027,856,531.3,.,.,.,.,.,.,.,.,.,.,.,.,.,.,NONE
SRC01TE2,left,0,left,731,north_west,south_east,left,403,1,south_east,34,NONE,1266,1,1260,7,817.8,541.5,.,.,.,.,.,.,.,.,.,.,.,.,.,.,.
SRC01TE2,left,0,left,790,north_west,south_east,left,450,1,south_west,35,NONE,1374,1,1368,7,839.5,524.1,.,.,.,.,.,.,.,.,.,.,.,.,.,.,.
SRC01TE2,right,0,right,476,north_west,south_east,right,568,1,south_east,36,NONE,1178,1,1172,7,837,527.3,.,.,.,.,.,.,.,.,.,.,.,.,.,.,.
SRC01TE2,right,0,right,208,north_west,south_east,right,723,1,north_east,37,NONE,1065,1,1059,7,840.9,533.9,.,.,.,.,.,.,.,.,.,.,.,.,.,.,.
SRC01TE2,left,0,left,758,north_west,south_east,left,415,1,south_west,38,NONE,1196,1,1190,7,844.6,526.9,16,LEFT,FALSE,0.85,-170.01,53.39,1212,814.4,515,1,59.57,855.2,507.8,1197,.
SRC01TE2,left,0,left,758,north_west,south_east,left,415,1,south_west,38,NONE,1309,2,97,1213,809.4,516,.,.,.,.,.,.,.,.,.,.,.,.,.,.,NONE
SRC01TE2,right,0,right,688,north_west,south_east,right,500,1,north_west,39,NONE,1321,1,1315,7,835.6,531.8,.,.,.,.,.,.,.,.,.,.,.,.,.,.,.
SRC01TE2,right,0,right,366,north_west,south_east,right,492,1,north_west,40,NONE,358,1,352,7,845.4,525.9,7,.,FALSE,0.31,-169.45,44.94,365,833.8,527.1,1,33.61,848.8,524.3,359,.
SRC01TE2,right,0,right,366,north_west,south_east,right,492,1,north_west,40,NONE,993,2,628,366,844.6,508.9,.,.,.,.,.,.,.,.,.,.,.,.,.,.,NONE
SRC01TE2,right,0,right,677,north_west,south_east,right,527,1,south_east,41,NONE,1340,1,1334,7,839.1,525.3,.,.,.,.,.,.,.,.,.,.,.,.,.,.,.
SRC01TE2,right,0,right,246,north_west,south_east,right,484,1,south_west,42,NONE,862,1,856,7,828,556.6,.,.,.,.,.,.,.,.,.,.,.,.,.,.,.
SRC01TE2,left,0,left,273,north_west,south_east,left,525,1,south_east,43,NONE,931,1,925,7,837.5,524,.,.,.,.,.,.,.,.,.,.,.,.,.,.,.
SRC01TE2,right,0,right,535,north_west,south_east,left,641,0,north_east,44,NONE,1134,1,1128,7,842.6,538.2,6,.,FALSE,0.2,37.4,33.31,1140,852.7,519.7,1,29.54,845,525.6,1135,.
SRC01TE2,right,0,right,535,north_west,south_east,left,641,0,north_east,44,NONE,1310,2,170,1141,852.9,521.2,.,.,.,.,.,.,.,.,.,.,.,.,.,.,NONE
SRC01TE2,right,0,right,598,north_west,south_east,right,405,1,south_west,45,NONE,1142,1,1136,7,822.1,538.2,.,.,.,.,.,.,.,.,.,.,.,.,.,.,.
SRC01TE2,left,0,left,457,north_west,south_east,left,467,1,south_east,46,NONE,1057,1,1051,7,842.6,516.5,.,.,.,.,.,.,.,.,.,.,.,.,.,.,.
SRC01TE2,left,0,left,516,north_west,south_east,left,427,1,south_west,47,NONE,932,1,926,7,854.5,525.7,29,LEFT,FALSE,2.63,-162.89,90.59,961,734.5,572.5,1,142.6,856.4,534.9,933,.
SRC01TE2,left,0,left,516,north_west,south_east,left,427,1,south_west,47,NONE,1082,2,121,962,741.2,571.3,.,.,.,.,.,.,.,.,.,.,.,.,.,.,NONE
SRC01TE2,right,0,right,509,north_west,south_east,right,445,1,south_west,48,NONE,430,1,424,7,844,524.9,7,.,FALSE,0.35,32.31,49.49,437,852,516.2,1,34.77,837.8,525.2,431,.
SRC01TE2,right,0,right,509,north_west,south_east,right,445,1,south_west,48,NONE,1090,2,653,438,861.2,511.4,.,.,.,.,.,.,.,.,.,.,.,.,.,.,NONE
SRC01TE2,right,0,right,738,north_west,south_east,right,605,1,north_west,49,NONE,1138,1,1132,7,828.8,529.7,20,RIGHT,FALSE,0.87,29.93,43.3,1158,865.8,506,1,69.28,829.4,527,1139,.
SRC01TE2,right,0,right,738,north_west,south_east,right,605,1,north_west,49,NONE,1328,2,170,1159,849.3,506.6,8,.,FALSE,0.34,-175.1,42.16,1336,828.5,507.5,2,36.17,844.8,506.1,1329,NONE
SRC01TE2,right,0,right,738,north_west,south_east,right,605,1,north_west,49,NONE,1476,3,140,1337,828.1,510.4,.,.,.,.,.,.,.,.,.,.,.,.,.,.,NONE
SRC01TE2,right,0,right,602,north_west,south_east,right,559,1,north_east,50,NONE,1294,1,1288,7,834.1,527,.,.,.,.,.,.,.,.,.,.,.,.,.,.,.
SRC01TE2,right,0,right,248,north_west,south_east,right,487,1,south_west,51,NONE,844,1,838,7,840.2,534.3,24,.,FALSE,0.32,152.82,13.33,868,817.6,525.4,1,41.12,831.4,532.5,845,.
SRC01TE2,left,0,left,387,north_west,south_east,right,627,0,north_east,52,NONE,464,1,458,7,837.1,517.9,28,.,FALSE,0.47,172.21,16.8,492,811.8,514.4,1,87.21,834.4,517.5,465,.
SRC01TE2,left,0,left,387,north_west,south_east,right,627,0,north_east,52,NONE,833,2,341,493,798.4,525.5,24,RIGHT,FALSE,0.95,24.03,39.79,857,830.7,511,2,94.87,788.4,529.9,834,NONE
SRC01TE2,left,0,left,387,north_west,south_east,right,627,0,north_east,52,NONE,1149,3,292,858,820.5,518.1,.,.,.,.,.,.,.,.,.,.,.,.,.,.,NONE
SRC01TE2,left,0,left,617,north_west,south_east,right,510,0,north_west,53,NONE,1269,1,1263,7,850.9,550.5,.,.,.,.,.,.,.,.,.,.,.,.,.,.,.
SRC01TE2,right,0,right,717,north_west,south_east,right,471,1,south_east,54,NONE,417,1,411,7,834.7,526.7,6,.,FALSE,0.21,170.28,34.52,423,835.6,517.1,1,30.4,845.5,518.8,418,.
SRC01TE2,right,0,right,717,north_west,south_east,right,471,1,south_east,54,NONE,1272,2,849,424,828.3,522.9,19,RIGHT,FALSE,0.98,5.52,51.79,1291,875.9,530.4,2,75.96,828.4,535,1273,NONE
SRC01TE2,right,0,right,717,north_west,south_east,right,471,1,south_east,54,NONE,1328,3,37,1292,859.5,528.3,.,.,.,.,.,.,.,.,.,.,.,.,.,.,NONE
SRC01TE2,left,0,left,663,north_west,south_east,left,499,1,south_east,55,NONE,1276,1,1270,7,860.5,513.6,28,.,FALSE,0.3,29.84,10.78,1304,882.9,489.5,1,54.02,870.2,496.8,1277,.
SRC01TE2,right,0,right,408,north_west,south_east,right,567,1,north_west,56,NONE,1115,1,1109,7,825.2,520.7,.,.,.,.,.,.,.,.,.,.,.,.,.,.,.
SRC01TE2,left,0,left,790,north_west,south_east,right,505,0,north_west,57,NONE,1436,1,1430,7,833,546.8,.,.,.,.,.,.,.,.,.,.,.,.,.,.,.
SRC01TE2,left,0,left,445,north_west,south_east,left,421,1,south_west,58,NONE,379,1,373,7,837.6,517.2,8,.,FALSE,0.41,175.68,51.18,387,809.8,520.1,1,43.53,829.6,521.6,380,.
SRC01TE2,left,0,left,445,north_west,south_east,left,421,1,south_west,58,NONE,943,2,556,388,807.8,514.1,23,.,FALSE,0.45,23.84,19.7,966,821,503.8,2,69.69,800.9,512.7,944,NONE
SRC01TE2,left,0,left,445,north_west,south_east,left,421,1,south_west,58,NONE,1008,3,42,967,813.2,507.1,.,.,.,.,.,.,.,.,.,.,.,.,.,.,NONE
SRC01TE2,left,0,left,742,north_west,south_east,left,647,1,north_west,59,NONE,1529,1,1523,7,843,513.5,.,.,.,.,.,.,.,.,.,.,.,.,.,.,.
SRC01TE2,right,0,right,451,north_west,south_east,right,505,1,north_west,60,NONE,980,1,974,7,844,520.3,21,RIGHT,FALSE,0.86,15.63,41.09,1001,873,489.4,1,77.96,832.7,500.7,981,.
SRC01TE2,right,0,right,451,north_west,south_east,right,505,1,north_west,60,NONE,1089,2,88,1002,857.6,489.1,.,.,.,.,.,.,.,.,.,.,.,.,.,.,NONE
SRC01TE2,right,0,right,507,north_west,south_east,right,484,1,south_east,61,NONE,1070,1,1062,9,842,531.1,22,RIGHT,FALSE,0.79,9.94,35.78,1092,884.8,521.1,1,78.99,847.2,527.7,1071,.
SRC01TE2,right,0,right,507,north_west,south_east,right,484,1,south_east,61,NONE,1125,2,33,1093,870.7,522.8,.,.,.,.,.,.,.,.,.,.,.,.,.,.,NONE
SRC01TE2,right,0,right,434,north_west,south_east,right,482,1,south_west,62,NONE,1024,1,1018,7,838.5,511,28,.,FALSE,0.25,73.3,8.98,1052,850.8,487.9,1,45.77,847.3,499.6,1025,.
SRC01TE2,left,0,left,330,north_west,south_east,left,465,1,south_east,63,NONE,374,1,368,7,836.6,520.6,7,.,FALSE,0.32,-172.25,45.78,381,818.4,526.7,1,34.02,833.8,524.6,375,.
SRC01TE2,left,0,left,330,north_west,south_east,left,465,1,south_east,63,NONE,910,2,529,382,824.9,530.2,19,RIGHT,FALSE,0.74,21.97,39.08,929,853.9,515.3,2,70.72,820.5,528.8,911,NONE
SRC01TE2,left,0,left,756,north_west,south_east,right,575,0,north_west,64,NONE,1466,1,1460,7,830.4,525.7,.,.,.,.,.,.,.,.,.,.,.,.,.,.,.
SRC01TE2,right,0,right,628,north_west,south_east,right,538,1,north_east,65,NONE,1227,1,1221,7,837.9,519.2,22,RIGHT,FALSE,1.03,15.73,46.93,1249,878.4,518.2,1,88.35,830.2,531.8,1228,.
SRC01TE2,right,0,right,628,north_west,south_east,right,538,1,north_east,65,NONE,1306,2,57,1250,862.1,520.9,.,.,.,.,.,.,.,.,.,.,.,.,.,.,NONE
SRC01TE2,right,0,right,213,north_west,south_east,right,658,1,north_east,66,NONE,775,1,769,7,836.1,528.7,21,RIGHT,FALSE,0.58,16.98,27.51,796,863.2,523.8,1,68.24,836.4,532,776,.
SRC01TE2,right,0,right,213,north_west,south_east,right,658,1,north_east,66,NONE,1009,2,213,797,848.6,527.3,.,.,.,.,.,.,.,.,.,.,.,.,.,.,NONE
SRC01TE2,left,0,left,652,north_west,south_east,left,472,1,south_west,67,NONE,1260,1,1252,9,836.2,545.6,.,.,.,.,.,.,.,.,.,.,.,.,.,.,.
SRC01TE2,right,0,right,635,north_west,south_east,right,451,1,south_east,68,NONE,409,1,403,7,837.9,535.7,6,.,FALSE,0.24,-163.9,40.77,415,820.2,542.6,1,33.66,831.6,539.3,410,.
SRC01TE2,right,0,right,635,north_west,south_east,right,451,1,south_east,68,NONE,1219,2,804,416,817.4,537.7,.,.,.,.,.,.,.,.,.,.,.,.,.,.,NONE
SRC01TE2,left,0,left,741,north_west,south_east,left,468,1,south_east,69,NONE,1134,1,1126,9,843.4,518.2,22,RIGHT,FALSE,1.97,-6.71,89.65,1156,936.2,514.5,1,135.74,841.2,503.3,1135,.
SRC01TE2,left,0,left,741,north_west,south_east,left,468,1,south_east,69,NONE,1330,2,174,1157,926,518.7,.,.,.,.,.,.,.,.,.,.,.,.,.,.,NONE
SRC01TE2,left,0,left,698,north_west,south_east,left,562,1,north_west,70,NONE,1243,1,1237,7,834,530.8,15,RIGHT,FALSE,0.81,7.78,53.69,1258,865.4,520,1,62.3,826.7,525.3,1244,.
SRC01TE2,left,0,left,698,north_west,south_east,left,562,1,north_west,70,NONE,1402,2,144,1259,848.1,516.1,.,.,.,.,.,.,.,.,.,.,.,.,.,.,NONE
SRC01TE2,right,0,right,547,north_west,south_east,right,436,1,south_east,71,NONE,968,1,962,7,827.4,523.3,24,RIGHT,FALSE,2.04,-6.7,85.2,992,924.8,527.8,1,138.67,826.3,516.2,969,.
SRC01TE2,right,0,right,547,north_west,south_east,right,436,1,south_east,71,NONE,1115,2,123,993,900.1,529.6,.,.,.,.,.,.,.,.,.,.,.,.,.,.,NONE
SRC01TE2,right,0,right,519,north_west,south_east,left,612,0,north_east,72,NONE,1268,1,1262,7,854.2,533.5,.,.,.,.,.,.,.,.,.,.,.,.,.,.,.
SRC01TE2,left,0,left,787,north_west,south_east,left,507,1,north_east,73,NONE,1434,1,1428,7,843.5,511.6,.,.,.,.,.,.,.,.,.,.,.,.,.,.,.
SRC01TE2,right,0,right,364,north_west,south_east,right,709,1,north_west,74,NONE,868,1,862,7,839.8,526.9,22,LEFT,FALSE,1.36,143.81,61.78,890,789.9,489.5,1,87.86,843.1,528.5,869,.
SRC01TE2,right,0,right,364,north_west,south_east,right,709,1,north_west,74,NONE,1082,2,192,891,775.4,492.4,24,RIGHT,FALSE,1.88,-13.96,78.17,1106,862.7,508,2,133.58,774.4,486,1083,NONE
SRC01TE2,right,0,right,364,north_west,south_east,right,709,1,north_west,74,NONE,1195,3,89,1107,846,505.3,.,.,.,.,.,.,.,.,.,.,.,.,.,.,NONE
SRC01TE2,right,0,right,450,north_west,south_east,right,484,1,south_west,75,NONE,879,1,873,7,840.3,527.2,18,LEFT,FALSE,1.22,-162.08,67.54,897,783.6,548.2,1,82.34,839.7,530,880,.
SRC01TE2,right,0,right,450,north_west,south_east,right,484,1,south_west,75,NONE,1016,2,119,898,780.3,547.1,21,RIGHT,FALSE,1.6,23.56,76.16,1037,846.3,514.4,2,118.56,775.2,545.5,1017,NONE
SRC01TE2,right,0,right,450,north_west,south_east,right,484,1,south_west,75,NONE,1067,3,30,1038,834.2,519,.,.,.,.,.,.,.,.,.,.,.,.,.,.,NONE
SRC01TE2,right,0,right,541,north_west,south_east,right,695,1,north_east,76,NONE,385,1,379,7,838.3,523.4,14,LEFT,FALSE,0.7,-178.48,49.8,399,803.5,523.3,1,55.11,837.3,522.4,386,.
SRC01TE2,right,0,right,541,north_west,south_east,right,695,1,north_east,76,NONE,1100,2,701,400,818.9,517.5,23,RIGHT,FALSE,0.81,7.76,35.1,1123,858,500.2,2,80.76,819.2,505.5,1101,NONE
SRC01TE2,right,0,right,541,north_west,south_east,right,695,1,north_east,76,NONE,1328,3,205,1124,839.8,500,17,LEFT,FALSE,0.53,169.58,31.45,1345,808.7,496.1,3,53.61,834.2,500.8,1329,NONE
SRC01TE2,right,0,right,541,north_west,south_east,right,695,1,north_east,76,NONE,1371,4,26,1346,813.8,495.5,.,.,.,.,.,.,.,.,.,.,.,.,.,.,NONE
SRC01TE2,left,0,left,244,north_west,south_east,left,432,1,south_west,77,NONE,361,1,355,7,845,529.6,11,LEFT,FALSE,0.53,180,48.17,372,819,531.4,1,45.22,844.7,531.4,362,.
SRC01TE2,left,0,left,244,north_west,south_east,left,432,1,south_west,77,NONE,819,2,447,373,827.5,529.7,.,.,.,.,.,.,.,.,.,.,.,.,.,.,NONE
SRC01TE2,left,0,left,622,north_west,south_east,left,622,1,north_west,78,NONE,1165,1,1159,7,846.9,524.5,11,.,FALSE,0.5,51.51,45.17,1176,878.3,501.2,1,43.39,863.3,520.1,1166,.
SRC01TE2,left,0,left,622,north_west,south_east,left,622,1,north_west,78,NONE,1379,2,203,1177,859.9,505.9,.,.,.,.,.,.,.,.,.,.,.,.,.,.,NONE
SRC01TE2,right,0,right,796,north_west,south_east,right,561,1,north_east,79,NONE,448,1,442,7,850.9,520.9,19,.,FALSE,0.35,32.8,18.59,467,872.3,512.6,1,49.23,857.9,521.9,449,.
SRC01TE2,right,0,right,796,north_west,south_east,right,561,1,north_east,79,NONE,1498,2,1031,468,856.7,511.2,.,.,.,.,.,.,.,.,.,.,.,.,.,.,NONE
SRC01TE2,left,0,left,566,north_west,south_east,left,453,1,south_west,80,NONE,1155,1,1149,7,858.6,522.7,.,.,.,.,.,.,.,.,.,.,.,.,.,.,.
SRC01TE2,right,0,right,257,north_west,south_east,right,651,1,north_east,81,NONE,906,1,900,7,844.9,518.5,19,RIGHT,FALSE,1.13,9.36,59.28,925,905,509.1,1,85.94,851.1,518,907,.
SRC01TE2,right,0,right,257,north_west,south_east,right,651,1,north_east,81,NONE,1043,2,118,926,881.9,509.7,.,.,.,.,.,.,.,.,.,.,.,.,.,.,NONE
SRC01TE2,left,0,left,454,north_west,south_east,left,563,1,north_east,82,NONE,961,1,955,7,839.1,522.1,18,RIGHT,FALSE,0.97,28.96,54.07,979,880.6,499.7,1,74.28,839.3,522.6,962,.
SRC01TE2,left,0,left,454,north_west,south_east,left,563,1,north_east,82,NONE,1139,2,160,980,865,499.4,.,.,.,.,.,.,.,.,.,.,.,.,.,.,NONE
SRC01TE2,left,0,left,333,north_west,south_east,left,726,1,north_west,83,NONE,415,1,409,7,837.9,528.1,5,.,FALSE,0.2,7.7,39.95,420,835.4,525.2,1,29.67,825.8,526.5,416,.
SRC01TE2,left,0,left,333,north_west,south_east,left,726,1,north_west,83,NONE,848,2,428,421,833.2,522.9,33,LEFT,FALSE,2.45,150.64,74.27,881,726.3,460.2,2,119.13,829.9,518.6,849,NONE
SRC01TE2,left,0,left,333,north_west,south_east,left,726,1,north_west,83,NONE,1034,3,153,882,729.2,466.2,24,RIGHT,FALSE,2.32,-12.58,96.83,1058,838.7,492.7,3,171.14,728.7,468.1,1035,NONE
SRC01TE2,left,0,left,333,north_west,south_east,left,726,1,north_west,83,NONE,1194,4,136,1059,825,499.4,.,.,.,.,.,.,.,.,.,.,.,.,.,.,NONE
SRC01TE2,left,0,left,330,north_west,south_east,left,591,1,north_west,84,NONE,833,1,827,7,838.9,524.3,20,LEFT,FALSE,1.26,161.01,63.24,853,772.2,509.6,1,76.19,830.2,529.6,834,.
SRC01TE2,left,0,left,330,north_west,south_east,left,591,1,north_west,84,NONE,1002,2,149,854,769.2,505.7,40,RIGHT,FALSE,0.91,6.63,22.73,1042,809.7,503.8,2,91.45,765.9,508.9,1003,NONE
SRC01TE2,right,0,right,681,north_west,south_east,right,594,1,north_west,85,NONE,1180,1,1174,7,840.7,529.3,20,.,FALSE,0.35,42.77,17.27,1200,853.8,510.5,1,36.74,841.5,521.9,1181,.
SRC01TE2,right,0,right,681,north_west,south_east,right,594,1,north_west,85,NONE,1411,2,211,1201,836.5,513.8,.,.,.,.,.,.,.,.,.,.,.,.,.,.,NONE
SRC01TE2,left,0,left,470,north_west,south_east,left,566,1,south_east,86,NONE,1092,1,1086,7,832.2,536.6,21,RIGHT,FALSE,1.35,6.3,64.21,1113,890.5,532.4,1,93.62,825.5,539.6,1093,.
SRC01TE2,left,0,left,470,north_west,south_east,left,566,1,south_east,86,NONE,1171,2,58,1114,873.7,536.7,.,.,.,.,.,.,.,.,.,.,.,.,.,.,NONE
SRC01TE2,right,0,right,243,north_west,south_east,left,734,0,north_east,87,NONE,47,1,41,7,843.6,529,14,RIGHT,FALSE,0.7,2.37,49.82,61,877.9,528.3,1,55.78,844.1,529.7,48,.
SRC01TE2,right,0,right,243,north_west,south_east,left,734,0,north_east,87,NONE,958,2,897,62,867.3,519.6,6,.,FALSE,0.28,29.96,46.01,964,864.5,503,2,31.67,852.9,509.7,959,NONE
SRC01TE2,right,0,right,243,north_west,south_east,left,734,0,north_east,87,NONE,1100,3,136,965,861.4,507.5,.,.,.,.,.,.,.,.,.,.,.,.,.,.,NONE
SRC01TE2,left,0,left,758,north_west,south_east,left,532,1,north_east,88,NONE,1326,1,1320,7,833.6,530.3,9,.,FALSE,0.36,42.17,40.18,1335,868.8,520.9,1,35.35,855.8,532.7,1327,.
SRC01TE2,left,0,left,758,north_west,south_east,left,532,1,north_east,88,NONE,1433,2,98,1336,863,519.4,.,.,.,.,.,.,.,.,.,.,.,.,.,.,NONE
SRC01TE2,right,0,right,270,north_west,south_east,right,637,1,south_west,89,NONE,805,1,799,7,842.3,528.1,14,LEFT,FALSE,0.83,-167.31,59.48,819,802.9,539.5,1,63.82,842.3,530.6,806,.
SRC01TE2,right,0,right,270,north_west,south_east,right,637,1,south_west,89,NONE,942,2,123,820,802.4,543.7,18,RIGHT,FALSE,1.18,19.46,65.48,960,852,528.2,2,89.88,798.1,547.3,943,NONE
SRC01TE2,right,0,right,270,north_west,south_east,right,637,1,south_west,89,NONE,1042,3,82,961,837.5,532,.,.,.,.,.,.,.,.,.,.,.,.,.,.,NONE
SRC01TE2,right,0,right,759,north_west,south_east,right,654,1,south_east,90,NONE,1187,1,1181,7,832.8,521.1,25,RIGHT,FALSE,2.41,-6.76,96.42,1212,950,522.3,1,170.43,833.9,508.5,1188,.
SRC01TE2,right,0,right,759,north_west,south_east,right,654,1,south_east,90,NONE,1373,2,161,1213,926.2,527.9,23,LEFT,FALSE,1.77,167.33,77,1396,839.6,509.5,2,111.78,923.4,528.4,1374,NONE
SRC01TE2,right,0,right,759,north_west,south_east,right,654,1,south_east,90,NONE,1546,3,150,1397,826,505.1,.,.,.,.,.,.,.,.,.,.,.,.,.,.,NONE
SRC01TE2,right,0,right,204,north_west,south_east,right,639,1,south_east,91,NONE,977,1,971,7,835.1,532.2,.,.,.,.,.,.,.,.,.,.,.,.,.,.,.
SRC01TE2,left,0,left,388,north_west,south_east,left,559,1,south_west,92,NONE,473,1,467,7,833.6,528.4,6,.,FALSE,0.28,166.61,45.92,479,826.8,522,1,34.63,839.8,525.1,474,.
SRC01TE2,left,0,left,388,north_west,south_east,left,559,1,south_west,92,NONE,918,2,439,480,832.7,528.3,19,RIGHT,FALSE,0.61,6.63,31.9,937,869.5,523.3,2,56.48,840.3,526.7,919,NONE
SRC01TE2,left,0,left,388,north_west,south_east,left,559,1,south_west,92,NONE,1082,3,145,938,858.3,521.2,.,.,.,.,.,.,.,.,.,.,.,.,.,.,NONE
SRC01TE2,right,0,right,522,north_west,south_east,right,546,1,south_east,93,NONE,971,1,965,7,845.5,522.4,20,RIGHT,FALSE,0.72,16.95,36,991,879.3,520.4,1,69.52,845.9,530.6,972,.
SRC01TE2,right,0,right,522,north_west,south_east,right,546,1,south_east,93,NONE,1139,2,148,992,867.9,525.4,8,.,FALSE,0.35,177.66,44.11,1147,846.7,525.9,2,35.85,863.8,526.6,1140,NONE
SRC01TE2,right,0,right,522,north_west,south_east,right,546,1,south_east,93,NONE,1212,3,65,1148,848.2,524.1,.,.,.,.,.,.,.,.,.,.,.,.,.,.,NONE
SRC01TE2,right,0,right,454,north_west,south_east,right,550,1,south_east,94,NONE,480,1,474,7,840.9,525.1,18,.,FALSE,0.43,-0.55,23.71,498,863.5,526.8,1,49.69,842.8,526.6,481,.
SRC01TE2,right,0,right,454,north_west,south_east,right,550,1,south_east,94,NONE,817,2,319,499,859,525,21,RIGHT,FALSE,1.68,-10.05,80.19,838,940.9,539.9,2,117.46,860.4,525.6,818,NONE
SRC01TE2,right,0,right,454,north_west,south_east,right,550,1,south_east,94,NONE,972,3,134,839,930.2,544.8,21,LEFT,FALSE,1.56,162.29,74.31,993,857.6,522.9,3,100.64,929.7,546,973,NONE
SRC01TE2,right,0,right,454,north_west,south_east,right,550,1,south_east,94,NONE,1047,4,54,994,852.7,525.7,8,.,FALSE,0.28,158.4,34.93,1055,839.4,514,4,38.5,852,519,1048,NONE
SRC01TE2,right,0,right,454,north_west,south_east,right,550,1,south_east,94,NONE,1146,5,91,1056,835,502.3,.,.,.,.,.,.,.,.,.,.,.,.,.,.,NONE
SRC01TE2,left,0,left,796,north_west,south_east,right,622,0,north_west,95,NONE,442,1,436,7,848,527.3,7,.,FALSE,0.34,171.19,47.99,449,827,525.5,1,37.1,843.1,528,443,.
SRC01TE2,left,0,left,796,north_west,south_east,right,622,0,north_west,95,NONE,1378,2,929,450,836.1,528.1,20,RIGHT,FALSE,0.64,10.05,31.83,1398,870.5,526.3,2,68.73,840.1,531.7,1379,NONE
SRC01TE2,left,0,left,796,north_west,south_east,right,622,0,north_west,95,NONE,1563,3,165,1399,860.9,531.6,.,.,.,.,.,.,.,.,.,.,.,.,.,.,NONE
SRC01TE2,left,0,left,376,north_west,south_east,left,612,1,north_east,96,NONE,1123,1,1117,7,842.4,527.4,.,.,.,.,.,.,.,.,.,.,.,.,.,.,.
SRC01TE2,left,0,left,406,north_west,south_east,left,541,1,south_west,97,NONE,135,1,129,7,842.4,527.7,17,.,FALSE,0.46,17.84,27.27,152,868.5,521.9,1,49.65,847.1,528.8,136,.
SRC01TE2,left,0,left,406,north_west,south_east,left,541,1,south_west,97,NONE,1082,2,930,153,850.9,527,.,.,.,.,.,.,.,.,.,.,.,.,.,.,NONE
SRC01TE2,right,0,right,646,north_west,south_east,right,598,1,south_east,98,NONE,1062,1,1056,7,839.9,523.5,28,RIGHT,FALSE,2.84,-22.34,101.48,1090,978.6,577.8,1,202.61,851,525.2,1063,.
SRC01TE2,right,0,right,646,north_west,south_east,right,598,1,south_east,98,NONE,1226,2,136,1091,955.6,569.2,25,LEFT,FALSE,2.14,154.79,85.42,1251,859.3,527.6,2,127.41,953.1,571.9,1227,NONE
SRC01TE2,right,0,right,646,north_west,south_east,right,598,1,south_east,98,NONE,1378,3,127,1252,852.9,533.6,.,.,.,.,.,.,.,.,.,.,.,.,.,.,NONE
SRC01TE2,left,0,left,721,north_west,south_east,left,497,1,north_east,99,NONE,193,1,184,10,828.9,519.7,7,.,FALSE,0.31,-3.47,43.67,200,846,520.1,1,33.92,831.2,519.2,194,.
SRC01TE2,left,0,left,721,north_west,south_east,left,497,1,north_east,99,NONE,1354,2,1154,201,830.6,528,.,.,.,.,.,.,.,.,.,.,.,.,.,.,NONE
SRC01TE2,left,0,left,741,north_west,south_east,left,519,1,north_east,100,NONE,1362,1,1356,7,833.2,527.4,31,.,FALSE,0.27,69.72,8.63,1393,847.5,507.7,1,52.65,843,519.9,1363,.
SRC01TE2,left,0,left,363,north_west,south_east,left,663,1,north_west,101,NONE,1171,1,1165,7,833.2,534.4,.,.,.,.,.,.,.,.,.,.,.,.,.,.,.
SRC01TE2,left,0,left,342,north_west,south_east,left,532,1,north_west,102,NONE,505,1,499,7,846.3,523.4,14,LEFT,FALSE,0.72,173.31,51.75,519,811.9,520.2,1,57.53,846.8,524.3,506,.
SRC01TE2,left,0,left,342,north_west,south_east,left,532,1,north_west,102,NONE,872,2,353,520,824.9,520.6,20,.,FALSE,0.36,71.12,18.16,892,833.2,500.7,2,47.9,827.5,517.4,873,NONE
SRC01TE2,left,0,left,342,north_west,south_east,left,532,1,north_west,102,NONE,1009,3,117,893,830.5,501.8,.,.,.,.,.,.,.,.,.,.,.,.,.,.,NONE
SRC01TE2,right,0,right,649,north_west,south_east,right,551,1,north_west,103,NONE,1109,1,1103,7,845.2,531.7,22,LEFT,FALSE,1.86,155.81,84.45,1131,767.4,487.2,1,120.52,849.6,524.2,1110,.
SRC01TE2,right,0,right,649,north_west,south_east,right,551,1,north_west,103,NONE,1281,2,150,1132,765.7,489.3,24,RIGHT,FALSE,1.94,-11.18,80.92,1305,853.9,507.4,2,148.87,761.5,489.1,1282,NONE
SRC01TE2,right,0,right,649,north_west,south_east,right,551,1,north_west,103,NONE,1336,3,31,1306,840.6,505.3,.,.,.,.,.,.,.,.,.,.,.,.,.,.,NONE
SRC01TE2,right,0,right,799,north_west,south_east,right,585,1,south_west,104,NONE,30,1,24,7,834.3,526.6,11,.,FALSE,0.19,14.46,17.23,41,815.7,522.6,1,42.13,806.8,524.9,31,.
SRC01TE2,right,0,right,799,north_west,south_east,right,585,1,south_west,104,NONE,364,2,323,42,816.1,527.1,18,RIGHT,FALSE,0.59,6.46,32.51,382,841.7,526.4,2,55.06,813.5,529.6,365,NONE
SRC01TE2,right,0,right,799,north_west,south_east,right,585,1,south_west,104,NONE,1078,3,696,383,826.5,533.3,17,LEFT,FALSE,1.19,151.18,70.05,1095,769,502.9,3,83.41,819.6,530.8,1079,NONE
SRC01TE2,right,0,right,799,north_west,south_east,right,585,1,south_west,104,NONE,1293,4,198,1096,758,513,22,RIGHT,FALSE,1.76,-18.3,80.06,1315,837.5,548.5,4,122.79,756.4,521.6,1294,NONE
SRC01TE2,right,0,right,799,north_west,south_east,right,585,1,south_west,104,NONE,1506,5,191,1316,820.7,555,.,.,.,.,.,.,.,.,.,.,.,.,.,.,NONE
SRC01TE2,left,0,left,211,north_west,south_east,left,605,1,north_west,105,NONE,697,1,691,7,845.3,516.7,23,LEFT,FALSE,1.67,151.97,72.72,720,779.7,476.6,1,89.88,851.3,514.8,698,.
SRC01TE2,left,0,left,211,north_west,south_east,left,605,1,north_west,105,NONE,878,2,158,721,765.6,478.5,20,RIGHT,FALSE,1.35,5.26,67.36,898,825.3,475.8,2,85.92,760.3,481.8,879,NONE
SRC01TE2,left,0,left,211,north_west,south_east,left,605,1,north_west,105,NONE,937,3,39,899,823.5,479.9,.,.,.,.,.,.,.,.,.,.,.,.,.,.,NONE
SRC01TE2,right,0,right,327,north_west,south_east,right,578,1,south_east,106,NONE,1026,1,1020,7,836.4,534.4,.,.,.,.,.,.,.,.,.,.,.,.,.,.,.
SRC01TE2,right,0,right,468,north_west,south_east,right,537,1,south_west,107,NONE,874,1,868,7,849.4,527,31,LEFT,FALSE,2.53,-155.67,81.52,905,748,576.8,1,118.77,859.8,526.1,875,.
SRC01TE2,right,0,right,468,north_west,south_east,right,537,1,south_west,107,NONE,1023,2,118,906,752,566.7,27,RIGHT,FALSE,2.79,23.69,103.46,1050,873.2,509.6,2,185.56,749,564.2,1024,NONE
SRC01TE2,right,0,right,468,north_west,south_east,right,537,1,south_west,107,NONE,1140,3,90,1051,854.9,513.5,.,.,.,.,.,.,.,.,.,.,.,.,.,.,NONE
SRC01TE2,left,0,left,368,north_west,south_east,left,668,1,north_east,108,NONE,1171,1,1165,7,835.7,548.3,.,.,.,.,.,.,.,.,.,.,.,.,.,.,.
SRC01TE2,right,0,right,468,north_west,south_east,right,525,1,north_west,109,NONE,1137,1,1131,7,839.8,522.4,.,.,.,.,.,.,.,.,.,.,.,.,.,.,.
SRC01TE2,left,0,left,535,north_west,south_east,left,476,1,north_west,110,NONE,988,1,982,7,841.9,532.9,11,.,FALSE,0.43,134.7,38.91,999,815.6,526.3,1,39.61,830.2,541.1,989,.
SRC01TE2,left,0,left,535,north_west,south_east,left,476,1,north_west,110,NONE,1146,2,147,1000,801.5,528.1,.,.,.,.,.,.,.,.,.,.,.,.,.,.,NONE
SRC01TE2,right,0,right,510,north_west,south_east,right,554,1,north_east,111,NONE,421,1,415,7,841.1,529.8,7,.,FALSE,0.3,160.99,43.31,428,822.3,528.8,1,34.26,836.2,533.6,422,.
SRC01TE2,right,0,right,510,north_west,south_east,right,554,1,north_east,111,NONE,1172,2,744,429,837.7,524.9,14,RIGHT,FALSE,0.73,15.85,52.21,1186,881.8,514.2,2,60.48,847.7,523.9,1173,NONE
SRC01TE2,right,0,right,257,north_west,south_east,right,674,1,north_east,112,NONE,433,1,427,7,836.7,534.2,16,.,FALSE,0.25,150.98,15.62,449,821.9,535.2,1,34.56,832.5,541.1,434,.
SRC01TE2,right,0,right,257,north_west,south_east,right,674,1,north_east,112,NONE,1074,2,625,450,827,537.4,.,.,.,.,.,.,.,.,.,.,.,.,.,.,NONE
SRC01TE2,left,0,left,718,north_west,south_east,left,478,1,north_east,113,NONE,1339,1,1333,7,844.9,524.8,.,.,.,.,.,.,.,.,.,.,.,.,.,.,.
SRC01TE2,right,0,right,291,north_west,south_east,right,567,1,north_west,114,NONE,995,1,989,7,837.9,524.3,.,.,.,.,.,.,.,.,.,.,.,.,.,.,.
SRC01TE2,right,0,right,282,north_west,south_east,right,593,1,south_west,115,NONE,105,1,99,7,844.5,522.4,14,UP,FALSE,0.91,84.16,65.15,119,850.9,477.6,1,68.78,846.4,521.7,106,.
SRC01TE2,right,0,right,282,north_west,south_east,right,593,1,south_west,115,NONE,1018,2,899,120,839.3,493.7,.,.,.,.,.,.,.,.,.,.,.,.,.,.,NONE
SRC01TE2,left,0,left,644,north_west,south_east,left,523,1,north_east,116,NONE,1289,1,1283,7,850.8,532.1,.,.,.,.,.,.,.,.,.,.,.,.,.,.,.
SRC01TE2,left,0,left,640,north_west,south_east,left,511,1,south_east,117,NONE,1282,1,1276,7,855.4,523.9,.,.,.,.,.,.,.,.,.,.,.,.,.,.,.
SRC01TE2,left,0,left,537,north_west,south_east,left,513,1,north_east,118,NONE,967,1,961,7,847.6,525.5,16,RIGHT,FALSE,1.07,7.18,66.89,983,905.9,520.2,1,79.24,854.4,526.7,968,.
SRC01TE2,left,0,left,537,north_west,south_east,left,513,1,north_east,118,NONE,1057,2,74,984,896.8,517.5,24,LEFT,FALSE,1.57,174.35,65.35,1081,817.9,508.2,2,128.29,893.6,515.7,1058,NONE
SRC01TE2,left,0,left,537,north_west,south_east,left,513,1,north_east,118,NONE,1187,3,106,1082,831.1,508.8,.,.,.,.,.,.,.,.,.,.,.,.,.,.,NONE
SRC01TE2,left,0,left,762,north_west,south_east,left,586,1,south_west,119,AFTER,399,1,391,9,837.1,528.7,162,UP,TRUE,1.51,66.62,9.3,561,859.2,487.3,1,847.58,830.2,554.6,400,.
SRC01TE2,left,0,left,762,north_west,south_east,left,586,1,south_west,119,BEFORE,866,2,305,562,848.4,524.7,20,RIGHT,FALSE,0.62,-1.9,31.05,886,881.7,530.9,2,60.02,851.6,529.9,867,AFTER
SRC01TE2,left,0,left,762,north_west,south_east,left,586,1,south_west,119,NONE,1016,3,130,887,873.8,533.3,18,LEFT,FALSE,0.72,171.17,40.22,1034,838.4,524.4,3,68.31,873.1,529.8,1017,BEFORE
SRC01TE2,left,0,left,762,north_west,south_east,left,586,1,south_west,119,NONE,1401,4,367,1035,842.5,532,18,.,FALSE,0.49,25.66,27.19,1419,867.6,523.8,4,53.09,846.2,534.1,1402,NONE
SRC01TE2,left,0,left,762,north_west,south_east,left,586,1,south_west,119,NONE,1481,5,62,1420,860.5,526,.,.,.,.,.,.,.,.,.,.,.,.,.,.,NONE
SRC02TE1,left,0,left,285,north_east,south_west,right,505,0,north_west,0,NONE,924,1,918,7,848,525.8,.,.,.,.,.,.,.,.,.,.,.,.,.,.,.
SRC02TE1,right,0,right,262,north_east,south_west,right,211,1,north_east,1,NONE,607,1,601,7,828.3,524.7,.,.,.,.,.,.,.,.,.,.,.,.,.,.,.
SRC02TE1,left,0,left,784,north_east,south_west,right,240,0,north_east,2,NONE,1161,1,1155,7,844.5,525.8,.,.,.,.,.,.,.,.,.,.,.,.,.,.,.
SRC02TE1,right,0,right,332,north_east,south_west,right,296,1,north_east,3,NONE,763,1,757,7,840.7,528.9,.,.,.,.,.,.,.,.,.,.,.,.,.,.,.
SRC02TE1,right,0,right,492,north_east,south_west,right,466,1,south_east,4,NONE,1092,1,1086,7,847.6,528.5,.,.,.,.,.,.,.,.,.,.,.,.,.,.,.
SRC02TE1,left,0,left,455,north_east,south_west,right,266,0,south_west,5,NONE,858,1,852,7,855.1,536.8,.,.,.,.,.,.,.,.,.,.,.,.,.,.,.
SRC02TE1,right,0,right,567,north_east,south_west,right,345,1,north_east,6,NONE,1051,1,1045,7,825.4,522.8,.,.,.,.,.,.,.,.,.,.,.,.,.,.,.
SRC02TE1,left,0,left,200,north_east,south_west,left,351,1,north_east,7,NONE,698,1,692,7,837.9,517.9,.,.,.,.,.,.,.,.,.,.,.,.,.,.,.
SRC02TE1,left,0,left,622,north_east,south_west,right,418,0,north_west,8,NONE,1176,1,1170,7,841.1,514.1,.,.,.,.,.,.,.,.,.,.,.,.,.,.,.
SRC02TE1,right,0,right,385,north_east,south_west,right,484,1,north_east,9,NONE,1017,1,1011,7,823.3,547.2,.,.,.,.,.,.,.,.,.,.,.,.,.,.,.
SRC02TE1,right,0,right,541,north_east,south_west,right,459,1,north_west,10,NONE,1147,1,1141,7,829.4,533.1,.,.,.,.,.,.,.,.,.,.,.,.,.,.,.
SRC02TE1,right,0,right,529,north_east,south_west,right,508,1,south_east,11,NONE,1175,1,1169,7,844.9,529.1,.,.,.,.,.,.,.,.,.,.,.,.,.,.,.
SRC02TE1,right,0,right,663,north_east,south_west,right,477,1,north_west,12,NONE,1274,1,1268,7,851.3,512.8,.,.,.,.,.,.,.,.,.,.,.,.,.,.,.
SRC02TE1,left,0,left,529,north_east,south_west,right,590,0,south_east,13,NONE,1265,1,1259,7,840.9,523.1,.,.,.,.,.,.,.,.,.,.,.,.,.,.,.
SRC02TE1,right,0,right,446,north_east,south_west,right,509,1,south_west,14,NONE,1090,1,1084,7,836.5,518,.,.,.,.,.,.,.,.,.,.,.,.,.,.,.
SRC02TE1,right,0,right,545,north_east,south_west,right,457,1,north_east,15,NONE,1147,1,1141,7,834.5,527.5,.,.,.,.,.,.,.,.,.,.,.,.,.,.,.
SRC02TE1,left,0,left,227,north_east,south_west,right,581,0,north_east,16,NONE,955,1,949,7,826.6,508,.,.,.,.,.,.,.,.,.,.,.,.,.,.,.
SRC02TE1,left,0,left,660,north_east,south_west,right,545,0,north_west,17,NONE,1339,1,1333,7,849.2,512.9,.,.,.,.,.,.,.,.,.,.,.,.,.,.,.
SRC02TE1,left,0,left,359,north_east,south_west,right,465,0,south_east,18,NONE,959,1,953,7,842.1,504.8,.,.,.,.,.,.,.,.,.,.,.,.,.,.,.
SRC02TE1,right,0,right,362,north_east,south_west,left,514,0,north_east,19,NONE,1015,1,1009,7,842.9,503.2,.,.,.,.,.,.,.,.,.,.,.,.,.,.,.
SRC02TE1,left,0,left,534,north_east,south_west,right,337,0,north_west,20,NONE,1019,1,1013,7,851.8,515.4,.,.,.,.,.,.,.,.,.,.,.,.,.,.,.
SRC02TE1,right,0,right,270,north_east,south_west,left,488,0,south_west,21,NONE,895,1,889,7,840.3,506.2,.,.,.,.,.,.,.,.,.,.,.,.,.,.,.
SRC02TE1,right,0,right,630,north_east,south_west,left,292,0,south_east,22,NONE,1058,1,1052,7,851.3,510.7,.,.,.,.,.,.,.,.,.,.,.,.,.,.,.
SRC02TE1,right,0,right,432,north_east,south_west,left,211,0,north_west,23,NONE,792,1,786,7,837.3,509.7,.,.,.,.,.,.,.,.,.,.,.,.,.,.,.
SRC02TE1,right,0,right,226,north_east,south_west,right,244,1,south_east,24,NONE,610,1,604,7,841.2,521.6,.,.,.,.,.,.,.,.,.,.,.,.,.,.,.
SRC02TE1,left,0,left,704,north_east,south_west,right,205,0,north_west,25,NONE,1059,1,1053,7,836.7,494.4,.,.,.,.,.,.,.,.,.,.,.,.,.,.,.
SRC02TE1,right,0,right,516,north_east,south_west,right,214,1,north_west,26,NONE,865,1,859,7,844.9,513.9,.,.,.,.,.,.,.,.,.,.,.,.,.,.,.
SRC02TE1,left,0,left,581,north_east,south_west,right,240,0,south_east,27,NONE,959,1,953,7,834.3,520.4,.,.,.,.,.,.,.,.,.,.,.,.,.,.,.
SRC02TE1,right,0,right,352,north_east,south_west,right,422,1,north_east,28,NONE,909,1,903,7,833.6,535,.,.,.,.,.,.,.,.,.,.,.,.,.,.,.
SRC02TE1,left,0,left,312,north_east,south_west,right,518,0,south_west,29,NONE,966,1,960,7,834.5,540.9,.,.,.,.,.,.,.,.,.,.,.,.,.,.,.
SRC02TE1,left,0,left,504,north_east,south_west,right,362,0,north_west,30,NONE,1015,1,1009,7,843.3,533,.,.,.,.,.,.,.,.,.,.,.,.,.,.,.
SRC02TE1,left,0,left,377,north_east,south_west,right,573,0,north_east,31,NONE,1085,1,1079,7,837.9,518.9,.,.,.,.,.,.,.,.,.,.,.,.,.,.,.
SRC02TE1,right,0,right,459,north_east,south_west,right,681,1,south_east,32,NONE,1272,1,1266,7,834.8,520,.,.,.,.,.,.,.,.,.,.,.,.,.,.,.
SRC02TE1,left,0,left,286,north_east,south_west,left,382,1,south_east,33,NONE,788,1,782,7,849.9,504.8,.,.,.,.,.,.,.,.,.,.,.,.,.,.,.
SRC02TE1,right,0,right,349,north_east,south_west,left,495,0,south_east,34,NONE,983,1,977,7,841.4,509,.,.,.,.,.,.,.,.,.,.,.,.,.,.,.
SRC02TE1,right,0,right,274,north_east,south_west,left,403,0,north_west,35,NONE,823,1,817,7,848.2,519.2,.,.,.,.,.,.,.,.,.,.,.,.,.,.,.
SRC02TE1,right,0,right,246,north_east,south_west,right,513,1,north_west,36,NONE,893,1,887,7,837.4,518.4,.,.,.,.,.,.,.,.,.,.,.,.,.,.,.
SRC02TE1,left,0,left,682,north_east,south_west,left,441,1,north_west,37,NONE,1264,1,1258,7,840.2,512.7,.,.,.,.,.,.,.,.,.,.,.,.,.,.,.
SRC02TE1,right,0,right,793,north_east,south_west,left,743,0,north_east,38,NONE,1670,1,1664,7,833.9,532.2,.,.,.,.,.,.,.,.,.,.,.,.,.,.,.
SRC02TE1,left,0,left,708,north_east,south_west,left,576,1,north_east,39,NONE,1423,1,1417,7,833.3,512.4,.,.,.,.,.,.,.,.,.,.,.,.,.,.,.
SRC02TE1,right,0,right,536,north_east,south_west,right,382,1,north_east,40,NONE,1052,1,1046,7,845.7,507.1,.,.,.,.,.,.,.,.,.,.,.,.,.,.,.
SRC02TE1,left,0,left,791,north_east,south_west,left,550,1,south_east,41,NONE,1476,1,1470,7,838.9,516.7,.,.,.,.,.,.,.,.,.,.,.,.,.,.,.
SRC02TE1,right,0,right,716,north_east,south_west,left,539,0,north_east,42,NONE,1400,1,1394,7,842.7,522.9,.,.,.,.,.,.,.,.,.,.,.,.,.,.,.
SRC02TE1,right,0,right,455,north_east,south_west,left,390,0,south_east,43,NONE,984,1,978,7,846,509.7,.,.,.,.,.,.,.,.,.,.,.,.,.,.,.
SRC02TE1,left,0,left,572,north_east,south_west,left,425,1,south_west,44,NONE,1133,1,1127,7,852.1,506.5,.,.,.,.,.,.,.,.,.,.,.,.,.,.,.
SRC02TE1,right,0,right,630,north_east,south_west,left,597,0,north_east,45,NONE,1369,1,1363,7,836.1,522.3,.,.,.,.,.,.,.,.,.,.,.,.,.,.,.
SRC02TE1,left,0,left,238,north_east,south_west,left,432,1,north_west,46,NONE,805,1,799,7,822.5,534.5,.,.,.,.,.,.,.,.,.,.,.,.,.,.,.
SRC02TE1,left,0,left,247,north_east,south_west,left,389,1,south_west,47,NONE,770,1,764,7,838.8,518.8,.,.,.,.,.,.,.,.,.,.,.,.,.,.,.
SRC02TE1,right,0,right,543,north_east,south_west,left,355,0,south_west,48,NONE,1040,1,1034,7,852.4,516.7,.,.,.,.,.,.,.,.,.,.,.,.,.,.,.
SRC02TE1,left,0,left,508,north_east,south_west,left,625,1,south_east,49,NONE,1274,1,1268,7,835.4,514.8,.,.,.,.,.,.,.,.,.,.,.,.,.,.,.
SRC02TE1,right,0,right,704,north_east,south_west,left,404,0,north_west,50,NONE,1250,1,1244,7,854.7,517,.,.,.,.,.,.,.,.,.,.,.,.,.,.,.
SRC02TE1,right,0,right,707,north_east,south_west,left,673,0,north_east,51,NONE,1516,1,1510,7,839.8,506.6,.,.,.,.,.,.,.,.,.,.,.,.,.,.,.
SRC02TE1,left,0,left,789,north_east,south_west,left,513,1,north_east,52,NONE,1436,1,1430,7,830.6,522.7,.,.,.,.,.,.,.,.,.,.,.,.,.,.,.
SRC02TE1,right,0,right,592,north_east,south_west,right,366,1,north_east,53,NONE,1091,1,1085,7,845.1,512.1,.,.,.,.,.,.,.,.,.,.,.,.,.,.,.
SRC02TE1,left,0,left,437,north_east,south_west,left,470,1,north_east,54,NONE,1028,1,1022,7,840,517.3,.,.,.,.,.,.,.,.,.,.,.,.,.,.,.
SRC02TE1,right,0,right,235,north_east,south_west,right,511,1,south_west,55,NONE,867,1,861,7,842.4,515.3,.,.,.,.,.,.,.,.,.,.,.,.,.,.,.
SRC02TE1,right,0,right,596,north_east,south_west,right,400,1,south_west,56,NONE,1132,1,1126,7,824.1,511.2,.,.,.,.,.,.,.,.,.,.,.,.,.,.,.
SRC02TE1,left,0,left,523,north_east,south_west,left,512,1,north_west,57,NONE,1155,1,1149,7,828.3,517.7,.,.,.,.,.,.,.,.,.,.,.,.,.,.,.
SRC02TE1,left,0,left,700,north_east,south_west,left,399,1,south_west,58,NONE,1241,1,1235,7,842.4,515,.,.,.,.,.,.,.,.,.,.,.,.,.,.,.
SRC02TE1,left,0,left,649,north_east,south_west,left,491,1,south_west,59,NONE,1275,1,1269,7,844.4,520.5,.,.,.,.,.,.,.,.,.,.,.,.,.,.,.
SRC02TE1,right,0,right,410,north_east,south_west,right,522,1,north_west,60,AFTER,996,1,990,7,836.8,528.7,71,DOWN,TRUE,.,.,.,1067,.,.,1,1025.64,834.1,524.5,997,.
SRC02TE1,right,0,right,370,north_east,south_west,right,523,1,south_west,61,NONE,1027,1,1021,7,837.8,516.6,.,.,.,.,.,.,.,.,.,.,.,.,.,.,.
SRC02TE1,left,0,left,779,north_east,south_west,left,454,1,south_west,62,NONE,1366,1,1360,7,841.6,523.1,.,.,.,.,.,.,.,.,.,.,.,.,.,.,.
SRC02TE1,left,0,left,465,north_east,south_west,left,542,1,north_east,63,NONE,1146,1,1140,7,850.7,483.4,.,.,.,.,.,.,.,.,.,.,.,.,.,.,.
SRC02TE1,right,0,right,475,north_east,south_west,right,466,1,south_west,64,NONE,1083,1,1077,7,831.3,521.8,.,.,.,.,.,.,.,.,.,.,.,.,.,.,.
SRC02TE1,left,0,left,304,north_east,south_west,left,573,1,north_east,65,NONE,1011,1,1005,7,839.6,520.5,.,.,.,.,.,.,.,.,.,.,.,.,.,.,.
SRC02TE1,right,0,right,330,north_east,south_west,right,667,1,south_east,66,NONE,1131,1,1125,7,832.9,514.8,.,.,.,.,.,.,.,.,.,.,.,.,.,.,.
SRC02TE1,left,0,left,628,north_east,south_west,left,495,1,north_east,67,NONE,1258,1,1252,7,845.8,517,.,.,.,.,.,.,.,.,.,.,.,.,.,.,.
SRC02TE1,left,0,left,784,north_east,south_west,left,598,1,south_west,68,NONE,1515,1,1509,7,844,522.8,.,.,.,.,.,.,.,.,.,.,.,.,.,.,.
SRC02TE1,left,0,left,221,north_east,south_west,left,600,1,south_west,69,NONE,955,1,949,7,845.9,527.8,.,.,.,.,.,.,.,.,.,.,.,.,.,.,.
SRC02TE1,left,0,left,434,north_east,south_west,left,690,1,south_east,70,NONE,915,1,909,7,836.8,524.9,33,RIGHT,FALSE,2.64,-31.68,80.09,948,946.4,578.4,1,186.97,837.2,510.8,916,.
SRC02TE1,left,0,left,434,north_east,south_west,left,690,1,south_east,70,NONE,1076,2,128,949,943.6,570,29,LEFT,FALSE,2.61,141.81,90.01,1105,845.6,494.8,2,161.5,945.2,573.4,1077,NONE
SRC02TE1,left,0,left,434,north_east,south_west,left,690,1,south_east,70,NONE,1260,3,155,1106,847.9,503.5,.,.,.,.,.,.,.,.,.,.,.,.,.,.,NONE
SRC02TE1,left,0,left,254,north_east,south_west,left,616,1,north_west,71,NONE,1003,1,997,7,842.2,522.4,.,.,.,.,.,.,.,.,.,.,.,.,.,.,.
SRC02TE1,right,0,right,323,north_east,south_west,right,548,1,north_west,72,NONE,995,1,989,7,842.8,520.8,.,.,.,.,.,.,.,.,.,.,.,.,.,.,.
SRC02TE1,left,0,left,281,north_east,south_west,left,603,1,south_east,73,NONE,1019,1,1013,7,841.6,512.4,.,.,.,.,.,.,.,.,.,.,.,.,.,.,.
SRC02TE1,left,0,left,300,north_east,south_west,left,752,1,south_west,74,NONE,1186,1,1180,7,839.9,501.8,.,.,.,.,.,.,.,.,.,.,.,.,.,.,.
SRC02TE1,right,0,right,213,north_east,south_west,left,828,0,south_east,75,NONE,1164,1,1158,7,828.8,527,.,.,.,.,.,.,.,.,.,.,.,.,.,.,.
SRC02TE1,left,0,left,452,north_east,south_west,left,457,1,north_west,76,NONE,1050,1,1044,7,830.1,513.6,.,.,.,.,.,.,.,.,.,.,.,.,.,.,.
SRC02TE1,left,0,left,660,north_east,south_west,left,553,1,north_east,77,NONE,1348,1,1342,7,835.8,517.9,.,.,.,.,.,.,.,.,.,.,.,.,.,.,.
SRC02TE1,left,0,left,344,north_east,south_west,left,533,1,south_east,78,NONE,1020,1,1014,7,843.2,513.3,.,.,.,.,.,.,.,.,.,.,.,.,.,.,.
SRC02TE1,right,0,right,745,north_east,south_west,right,556,1,south_west,79,NONE,1436,1,1430,7,843.4,518.3,.,.,.,.,.,.,.,.,.,.,.,.,.,.,.
SRC02TE1,left,0,left,537,north_east,south_west,left,516,1,north_east,80,NONE,1187,1,1181,7,850,517.7,.,.,.,.,.,.,.,.,.,.,.,.,.,.,.
SRC02TE1,left,0,left,419,north_east,south_west,left,586,1,north_west,81,NONE,1147,1,1141,7,831.5,513.4,.,.,.,.,.,.,.,.,.,.,.,.,.,.,.
SRC02TE1,right,0,right,705,north_east,south_west,right,428,1,south_east,82,NONE,1266,1,1260,7,840.5,514.6,.,.,.,.,.,.,.,.,.,.,.,.,.,.,.
SRC02TE1,left,0,left,464,north_east,south_west,left,491,1,south_east,83,NONE,1089,1,1083,7,830.2,509.8,.,.,.,.,.,.,.,.,.,.,.,.,.,.,.
SRC02TE1,right,0,right,219,north_east,south_west,right,618,1,south_east,84,NONE,423,1,417,7,839.4,521.7,6,.,FALSE,0.22,14.01,36.83,429,852.2,517,1,31.78,841.8,519.6,424,.
SRC02TE1,right,0,right,219,north_east,south_west,right,618,1,south_east,84,NONE,971,2,542,430,843.6,512.9,.,.,.,.,.,.,.,.,.,.,.,.,.,.,NONE
SRC02TE1,right,0,right,408,north_east,south_west,right,571,1,south_west,85,NONE,1122,1,1116,7,839.9,522.5,.,.,.,.,.,.,.,.,.,.,.,.,.,.,.
SRC02TE1,right,0,right,260,north_east,south_west,right,551,1,north_west,86,NONE,947,1,941,7,845.7,508.8,.,.,.,.,.,.,.,.,.,.,.,.,.,.,.
SRC02TE1,left,0,left,302,north_east,south_west,left,463,1,north_west,87,NONE,899,1,893,7,849.5,514.5,.,.,.,.,.,.,.,.,.,.,.,.,.,.,.
SRC02TE1,right,0,right,263,north_east,south_west,right,532,1,south_west,88,NONE,929,1,923,7,837.1,524.7,.,.,.,.,.,.,.,.,.,.,.,.,.,.,.
SRC02TE1,left,0,left,218,north_east,south_west,left,483,1,south_west,89,NONE,833,1,827,7,836.8,529.2,.,.,.,.,.,.,.,.,.,.,.,.,.,.,.
SRC02TE1,left,0,left,302,north_east,south_west,left,462,1,south_west,90,NONE,898,1,892,7,839.1,513.5,.,.,.,.,.,.,.,.,.,.,.,.,.,.,.
SRC02TE1,right,0,right,316,north_east,south_west,right,533,1,north_west,91,NONE,984,1,978,7,838.8,532.2,.,.,.,.,.,.,.,.,.,.,.,.,.,.,.
SRC02TE1,left,0,left,356,north_east,south_west,left,536,1,north_east,92,NONE,1026,1,1020,7,841.4,519.9,.,.,.,.,.,.,.,.,.,.,.,.,.,.,.
SRC02TE1,left,0,left,402,north_east,south_west,left,632,1,south_east,93,NONE,1178,1,1172,7,837.8,521.7,.,.,.,.,.,.,.,.,.,.,.,.,.,.,.
SRC02TE1,left,0,left,319,north_east,south_west,left,480,1,north_east,94,NONE,933,1,927,7,830.7,513.2,.,.,.,.,.,.,.,.,.,.,.,.,.,.,.
SRC02TE1,right,0,right,749,north_east,south_west,right,571,1,north_west,95,NONE,1465,1,1459,7,840.3,526,.,.,.,.,.,.,.,.,.,.,.,.,.,.,.
SRC02TE1,left,0,left,215,north_east,south_west,left,500,1,north_west,96,NONE,858,1,852,7,846.5,508.7,.,.,.,.,.,.,.,.,.,.,.,.,.,.,.
SRC02TE1,left,0,left,753,north_east,south_west,left,570,1,south_east,97,NONE,1467,1,1461,7,835.3,527.2,.,.,.,.,.,.,.,.,.,.,.,.,.,.,.
SRC02TE1,left,0,left,596,north_east,south_west,left,567,1,north_east,98,NONE,1306,1,1300,7,842.9,502.8,.,.,.,.,.,.,.,.,.,.,.,.,.,.,.
SRC02TE1,right,0,right,772,north_east,south_west,right,536,1,south_west,99,NONE,1442,1,1436,7,831.5,514.8,.,.,.,.,.,.,.,.,.,.,.,.,.,.,.
SRC02TE1,right,0,right,396,north_east,south_west,right,807,1,north_east,100,NONE,1175,1,1169,7,846.2,512.3,7,.,FALSE,0.26,-14.78,36.86,1182,860,500.8,1,33.08,847.9,497.6,1176,.
SRC02TE1,right,0,right,396,north_east,south_west,right,807,1,north_east,100,NONE,1337,2,155,1183,855.8,500.7,.,.,.,.,.,.,.,.,.,.,.,.,.,.,NONE
SRC02TE1,right,0,right,588,north_east,south_west,left,431,0,south_west,101,NONE,1155,1,1149,7,837.2,516.8,.,.,.,.,.,.,.,.,.,.,.,.,.,.,.
SRC02TE1,right,0,right,455,north_east,south_west,right,604,1,north_east,102,NONE,1194,1,1188,7,835,523.1,.,.,.,.,.,.,.,.,.,.,.,.,.,.,.
SRC02TE1,left,0,left,358,north_east,south_west,left,638,1,south_west,103,NONE,1140,1,1134,7,833.5,528.3,.,.,.,.,.,.,.,.,.,.,.,.,.,.,.
SRC02TE1,right,0,right,498,north_east,south_west,right,536,1,north_west,104,NONE,1179,1,1173,7,832.2,522,.,.,.,.,.,.,.,.,.,.,.,.,.,.,.
SRC02TE1,right,0,right,227,north_east,south_west,right,639,1,south_east,105,NONE,1001,1,995,7,844.9,510.2,.,.,.,.,.,.,.,.,.,.,.,.,.,.,.
SRC02TE1,right,0,right,370,north_east,south_west,right,568,1,south_east,106,NONE,1052,1,1046,7,832.3,514.7,32,.,FALSE,0.1,4.56,3.23,1084,839.3,499.2,1,36.82,834.3,499.6,1053,.
SRC02TE1,right,0,right,794,north_east,south_west,right,463,1,north_west,107,NONE,1401,1,1395,7,837,520.3,.,.,.,.,.,.,.,.,.,.,.,.,.,.,.
SRC02TE1,left,0,left,355,north_east,south_west,left,565,1,south_east,108,NONE,1055,1,1049,7,834.3,518.4,.,.,.,.,.,.,.,.,.,.,.,.,.,.,.
SRC02TE1,right,0,right,532,north_east,south_west,right,564,1,south_west,109,NONE,1143,1,1137,7,840.1,527.1,8,.,FALSE,0.35,-13.19,43.94,1151,851.3,531.8,1,38.28,834.7,527.9,1144,.
SRC02TE1,right,0,right,532,north_east,south_west,right,564,1,south_west,109,NONE,1233,2,82,1152,850.1,532.8,.,.,.,.,.,.,.,.,.,.,.,.,.,.,NONE
SRC02TE1,left,0,left,732,north_east,south_west,left,681,1,south_west,110,AFTER,1396,1,1390,7,843.5,514.7,119,RIGHT,TRUE,0.75,27.5,6.29,1515,859.5,500.9,1,995.02,827.3,517.7,1397,.
SRC02TE1,left,0,left,732,north_east,south_west,left,681,1,south_west,110,BEFORE,1545,2,30,1516,850,523.6,.,.,.,.,.,.,.,.,.,.,.,.,.,.,AFTER
SRC02TE1,left,0,left,712,north_east,south_west,left,743,1,south_east,111,NONE,1164,1,1158,7,832.7,510.2,24,RIGHT,FALSE,2.25,-28.32,93.69,1188,918,558.1,1,142.83,822,506.2,1165,.
SRC02TE1,left,0,left,712,north_east,south_west,left,743,1,south_east,111,NONE,1352,2,164,1189,907.5,559.9,22,LEFT,FALSE,1.92,138.7,87.2,1374,838.5,499.4,2,133.48,908.4,561,1353,NONE
SRC02TE1,left,0,left,712,north_east,south_west,left,743,1,south_east,111,NONE,1578,3,204,1375,836.8,510.1,.,.,.,.,.,.,.,.,.,.,.,.,.,.,NONE
SRC02TE1,left,0,left,518,north_east,south_west,left,521,1,south_east,112,NONE,1130,1,1124,7,844.7,514.4,31,DOWN,FALSE,15.42,-107.67,497.44,1161,609.1,1262.1,1,1011.58,842,513.5,1131,.
SRC02TE1,right,0,right,516,north_east,south_west,right,528,1,south_west,113,NONE,1176,1,1170,7,834.7,525.5,.,.,.,.,.,.,.,.,.,.,.,.,.,.,.
SRC02TE1,left,0,left,292,north_east,south_west,left,431,1,north_west,114,NONE,859,1,853,7,842.2,522.8,.,.,.,.,.,.,.,.,.,.,.,.,.,.,.
SRC02TE1,right,0,right,665,north_east,south_west,right,554,1,south_west,115,NONE,1275,1,1269,7,827.7,528.9,9,.,FALSE,0.42,-17.52,47.09,1284,845.8,536.4,1,43.82,826.2,530.2,1276,.
SRC02TE1,right,0,right,665,north_east,south_west,right,554,1,south_west,115,NONE,1363,2,79,1285,844.8,536.1,.,.,.,.,.,.,.,.,.,.,.,.,.,.,NONE
SRC02TE1,right,0,right,472,north_east,south_west,right,666,1,north_west,116,NONE,1276,1,1270,7,841.7,521.2,.,.,.,.,.,.,.,.,.,.,.,.,.,.,.
SRC02TE1,left,0,left,260,north_east,south_west,right,582,0,south_west,117,NONE,988,1,982,7,847,523.6,.,.,.,.,.,.,.,.,.,.,.,.,.,.,.
SRC02TE1,right,0,right,791,north_east,south_west,right,482,1,south_east,118,NONE,1403,1,1397,7,841.5,523.3,.,.,.,.,.,.,.,.,.,.,.,.,.,.,.
SRC02TE1,right,0,right,212,north_east,south_west,right,504,1,south_east,119,NONE,852,1,846,7,838,521.7,.,.,.,.,.,.,.,.,.,.,.,.,.,.,.
SRC02TE2,right,0,right,589,north_east,south_west,right,934,1,north_west,0,NONE,1658,1,1652,7,844.2,513,.,.,.,.,.,.,.,.,.,.,.,.,.,.,.
SRC02TE2,right,0,right,231,north_east,south_west,right,926,1,north_east,1,NONE,1292,1,1286,7,815.5,514.6,.,.,.,.,.,.,.,.,.,.,.,.,.,.,.
SRC02TE2,left,0,left,378,north_east,south_west,right,740,0,south_east,2,NONE,1252,1,1246,7,848.9,514.8,.,.,.,.,.,.,.,.,.,.,.,.,.,.,.
SRC02TE2,right,0,right,411,north_east,south_west,right,696,1,north_east,3,NONE,1249,1,1243,7,834.9,514,.,.,.,.,.,.,.,.,.,.,.,.,.,.,.
SRC02TE2,left,0,left,278,north_east,south_west,left,635,1,north_east,4,NONE,1035,1,1029,7,848.3,512.8,.,.,.,.,.,.,.,.,.,.,.,.,.,.,.
SRC02TE2,left,0,left,474,north_east,south_west,left,651,1,south_east,5,NONE,1260,1,1254,7,843.6,522.7,.,.,.,.,.,.,.,.,.,.,.,.,.,.,.
SRC02TE2,right,0,right,726,north_east,south_west,right,547,1,south_east,6,NONE,1395,1,1389,7,834,516.9,.,.,.,.,.,.,.,.,.,.,.,.,.,.,.
SRC02TE2,right,0,right,219,north_east,south_west,right,556,1,north_west,7,NONE,907,1,901,7,827.2,525.3,.,.,.,.,.,.,.,.,.,.,.,.,.,.,.
SRC02TE2,left,0,left,553,north_east,south_west,left,603,1,north_west,8,NONE,1291,1,1285,7,833.9,520.3,.,.,.,.,.,.,.,.,.,.,.,.,.,.,.
SRC02TE2,left,0,left,230,north_east,south_west,left,526,1,south_west,9,NONE,889,1,883,7,831.2,533.8,.,.,.,.,.,.,.,.,.,.,.,.,.,.,.
SRC02TE2,right,0,right,714,north_east,south_west,right,484,1,north_west,10,NONE,1340,1,1334,7,839.4,506.1,.,.,.,.,.,.,.,.,.,.,.,.,.,.,.
SRC02TE2,right,0,right,605,north_east,south_west,right,404,1,south_east,11,NONE,1130,1,1124,7,831.4,523.1,.,.,.,.,.,.,.,.,.,.,.,.,.,.,.
SRC02TE2,left,0,left,275,north_east,south_west,left,610,1,south_east,12,AFTER,987,1,981,7,828.6,543.7,32,DOWN,TRUE,.,.,.,1019,.,.,1,972.46,808.8,575.3,988,.
SRC02TE2,left,0,left,525,north_east,south_west,left,511,1,south_east,13,NONE,1179,1,1173,7,831.1,505.8,.,.,.,.,.,.,.,.,.,.,.,.,.,.,.
SRC02TE2,left,0,left,233,north_east,south_west,left,532,1,north_west,14,NONE,898,1,892,7,836.9,526.3,.,.,.,.,.,.,.,.,.,.,.,.,.,.,.
SRC02TE2,right,0,right,763,north_east,south_west,right,377,1,south_east,15,NONE,1274,1,1268,7,826,521.7,.,.,.,.,.,.,.,.,.,.,.,.,.,.,.
SRC02TE2,left,0,left,788,north_east,south_west,right,729,0,north_west,16,AFTER,1462,1,1456,7,828,509.7,163,RIGHT,TRUE,0.7,37.49,4.27,1625,850.7,491.1,1,1153.37,823.9,511.7,1463,.
SRC02TE2,left,0,left,788,north_east,south_west,right,729,0,north_west,16,BEFORE,1659,2,34,1626,852.7,485.3,.,.,.,.,.,.,.,.,.,.,.,.,.,.,AFTER
SRC02TE2,right,0,right,610,north_east,south_west,right,715,1,north_west,17,AFTER,1277,1,1271,7,824.3,529.4,132,UP,TRUE,1.68,71.28,12.72,1409,828.5,454.7,1,1111.49,802.4,531.9,1278,.
