RECORDING_SESSION_LABEL,CURRENT_SAC_AMPLITUDE,CURRENT_SAC_AVG_VELOCITY,CURRENT_SAC_CONTAINS_BLINK,CURRENT_SAC_DIRECTION,CURRENT_SAC_DURATION,CURRENT_SAC_ANGLE,CURRENT_SAC_END_TIME,CURRENT_SAC_END_X,CURRENT_SAC_END_Y,CURRENT_SAC_INDEX,CURRENT_SAC_PEAK_VELOCITY,CURRENT_SAC_START_TIME,CURRENT_SAC_START_X,CURRENT_SAC_START_Y,EYE_USED,PREVIOUS_FIX_BLINK_AROUND,block_number,block_trial_number,emcount,fix_to_stim,high_location,looked_distractor,low_location,not_fixated,points_received,ques_trial,response_key,response_time,sac_latency,target_correct,target_position,too_late,total_points,trial_number
SRC01TR,1.79,74.79,FALSE,UP,24,103.03,430,812.4,432.3,1,90.59,407,832,517.2,RIGHT,NONE,0,0,2,338,north_west,0,south_east,0,0,0,0,801,775,0,south_west,1,0,0
SRC01TR,1.05,61.71,FALSE,RIGHT,17,12.37,836,858,443.3,2,78.98,820,808.4,454.2,RIGHT,NONE,0,0,2,338,north_west,0,south_east,0,0,0,0,801,775,0,south_west,1,0,0
SRC01TR,4.64,132.67,FALSE,LEFT,35,-147.67,1095,665.2,568.4,3,221.35,1061,855.7,447.6,RIGHT,NONE,0,0,2,338,north_west,0,south_east,0,0,0,0,801,775,0,south_west,1,0,0
SRC01TR,2.82,104.34,FALSE,DOWN,27,-100.89,1261,632.2,708,4,182.29,1235,658.2,572.3,RIGHT,NONE,0,0,2,338,north_west,0,south_east,0,0,0,0,801,775,0,south_west,1,0,0
SRC01TR,5.52,137.98,FALSE,LEFT,40,-147.11,965,618.7,657.8,1,255.85,926,844.4,511.4,RIGHT,NONE,0,1,1,550,north_west,0,south_east,0,0,0,0,294,255,1,south_west,0,0,1
SRC01TR,0.46,45.63,FALSE,.,10,-52.12,1171,637.4,685.8,2,42.8,1162,623.7,668.1,RIGHT,NONE,0,1,1,550,north_west,0,south_east,0,0,0,0,294,255,1,south_west,0,0,1
SRC01TR,6.1,132.54,FALSE,UP,46,130.54,804,653.4,290.5,1,216.62,759,846,515.9,RIGHT,NONE,0,2,1,371,north_west,0,south_east,0,0,0,0,313,268,1,north_west,0,0,2
SRC01TR,0.97,54.05,FALSE,RIGHT,18,2.18,1121,670.7,324.9,2,75.03,1104,623.4,326.7,RIGHT,NONE,0,2,1,371,north_west,0,south_east,0,0,0,0,313,268,1,north_west,0,0,2
SRC01TR,4.19,131.06,FALSE,LEFT,32,136.46,701,688.3,370.1,1,184.49,670,835.9,510.5,RIGHT,NONE,0,3,1,249,north_west,0,south_east,0,0,0,0,331,300,1,north_west,0,0,3
SRC01TR,1.45,72.62,FALSE,UP,20,99.45,871,640.4,294.7,2,102.99,852,652,364.4,RIGHT,NONE,0,3,1,249,north_west,0,south_east,0,0,0,0,331,300,1,north_west,0,0,3
SRC01TR,5.37,116.78,FALSE,UP,46,133.04,1134,662.6,295.6,1,188.99,1089,840.6,486.6,RIGHT,NONE,0,4,1,677,north_west,0,south_east,0,0,0,0,323,278,1,north_west,0,0,4
SRC01TR,5.24,119.07,FALSE,UP,44,133.63,747,658.8,328.2,1,161.06,704,834.3,512.7,RIGHT,NONE,0,5,1,305,north_west,0,south_east,0,0,0,0,310,267,1,north_west,0,0,5
SRC01TR,0.51,36.21,FALSE,UP,14,122.6,972,623.3,327.3,2,40.34,959,636.6,348.1,RIGHT,NONE,0,5,1,305,north_west,0,south_east,0,0,0,0,310,267,1,north_west,0,0,5
SRC01TR,6.34,143.99,FALSE,RIGHT,44,-36.67,997,1091.8,706,1,258.4,954,843.8,520.8,RIGHT,NONE,0,6,1,541,north_west,0,south_east,0,0,0,0,323,280,1,south_east,0,0,6
SRC01TR,5.92,93.97,FALSE,RIGHT,63,-37.39,756,1066.2,691.6,1,232.73,694,836.9,515.8,RIGHT,NONE,0,7,1,272,north_west,0,south_east,0,0,0,0,350,288,1,south_east,0,0,7
SRC01TR,0.34,26.25,FALSE,.,13,-64.08,1095,1045.5,698.5,2,31.87,1083,1038.2,683.4,RIGHT,NONE,0,7,1,272,north_west,0,south_east,0,0,0,0,350,288,1,south_east,0,0,7
SRC01TR,5.17,123.07,FALSE,DOWN,42,-46.91,1151,986.4,688.1,1,262.1,1110,814.6,503.7,RIGHT,NONE,0,8,1,729,north_west,0,south_east,0,0,0,0,289,248,1,south_east,0,0,8
SRC01TR,1.44,55.25,FALSE,RIGHT,26,-5.69,1320,1055.3,695,2,142.5,1295,985.4,688,RIGHT,NONE,0,8,1,729,north_west,0,south_east,0,0,0,0,289,248,1,south_east,0,0,8
SRC01TR,6.85,171.33,FALSE,RIGHT,40,-39.48,1000,1106,717.8,1,335.3,961,847.6,504.3,RIGHT,NONE,0,9,1,618,north_west,0,south_east,0,0,0,0,252,213,1,south_east,0,0,9
SRC01TR,0.65,29.52,FALSE,LEFT,22,148.98,1206,1057.7,701.7,2,68.81,1185,1085,718.2,RIGHT,NONE,0,9,1,618,north_west,0,south_east,0,0,0,0,252,213,1,south_east,0,0,9
SRC01TR,0.68,30.96,FALSE,RIGHT,22,-0.85,1410,1087.5,712.4,3,72.7,1389,1054.1,711.9,RIGHT,NONE,0,9,1,618,north_west,0,south_east,0,0,0,0,252,213,1,south_east,0,0,9
SRC01TR,6.29,114.31,FALSE,RIGHT,55,-32.31,773,1095.3,695.6,1,298.29,719,836,531.1,RIGHT,NONE,0,10,2,366,north_west,0,south_east,0,0,0,0,433,377,0,north_east,1,0,10
SRC01TR,6.91,121.31,FALSE,UP,57,95.96,931,1062.3,375.4,2,264.73,875,1097.4,712.4,RIGHT,NONE,0,10,2,366,north_west,0,south_east,0,0,0,0,433,377,0,north_east,1,0,10
SRC01TR,0.58,47.92,FALSE,UP,12,79.1,1111,1065,334.6,3,48.36,1100,1059.7,362.1,RIGHT,NONE,0,10,2,366,north_west,0,south_east,0,0,0,0,433,377,0,north_east,1,0,10
SRC01TR,6.44,123.88,FALSE,RIGHT,52,-40.93,1085,1077.7,737.2,1,359.68,1034,840.2,530.4,RIGHT,NONE,0,11,1,693,north_west,0,south_east,0,0,0,0,261,210,1,south_east,0,0,11
SRC01TR,0.95,50.11,FALSE,LEFT,19,141.93,1253,1052.9,724.8,2,70.75,1235,1089.7,753.8,RIGHT,NONE,0,11,1,693,north_west,0,south_east,0,0,0,0,261,210,1,south_east,0,0,11
SRC01TR,0.69,31.5,FALSE,RIGHT,22,31.53,1470,1081.3,729,3,74.71,1449,1052.3,746.9,RIGHT,NONE,0,11,1,693,north_west,0,south_east,0,0,0,0,261,210,1,south_east,0,0,11
SRC01TR,0.35,50.58,FALSE,.,7,-160.63,1520,1047.6,752.4,4,46.01,1514,1064,746.6,RIGHT,NONE,0,11,1,693,north_west,0,south_east,0,0,0,0,261,210,1,south_east,0,0,11
SRC01TR,6.79,144.53,FALSE,RIGHT,47,43.83,692,1074.2,294.6,1,305.68,646,835.8,523.7,RIGHT,NONE,0,12,1,247,north_west,0,south_east,0,0,0,0,313,267,1,north_east,0,0,12
SRC01TR,0.77,55.35,FALSE,RIGHT,14,7.02,409,869.6,505.3,1,60.94,396,832.3,509.9,RIGHT,NONE,0,13,2,662,north_west,0,south_east,0,0,0,0,360,299,0,north_west,1,0,13
SRC01TR,5.18,107.89,FALSE,RIGHT,48,-39.79,1039,1057.1,674.4,2,307.82,992,863.1,512.5,RIGHT,NONE,0,13,2,662,north_west,0,south_east,0,0,0,0,360,299,0,north_west,1,0,13
SRC01TR,10.09,162.77,FALSE,LEFT,62,135.9,1158,703.9,346.9,3,340.72,1097,1057.2,690.3,RIGHT,NONE,0,13,2,662,north_west,0,south_east,0,0,0,0,360,299,0,north_west,1,0,13
SRC01TR,1.43,71.71,FALSE,UP,20,132.79,1312,643.9,302,4,110.21,1293,691.3,353.2,RIGHT,NONE,0,13,2,662,north_west,0,south_east,0,0,0,0,360,299,0,north_west,1,0,13
SRC01TR,5.78,137.57,FALSE,UP,42,132.33,924,647.4,314.4,1,253.57,883,836.5,522.2,RIGHT,NONE,0,14,1,534,north_west,0,south_east,0,0,0,0,267,226,1,north_west,0,0,14
SRC01TR,0.73,52.36,FALSE,LEFT,14,177.43,1300,595.6,332.4,2,56.18,1287,631.3,334,RIGHT,NONE,0,14,1,534,north_west,0,south_east,0,0,0,0,267,226,1,north_west,0,0,14
SRC01TR,5.9,118.02,FALSE,RIGHT,50,-39.06,954,1059.3,722.4,1,299.79,905,835.7,540.2,RIGHT,NONE,0,15,1,523,north_west,0,south_east,0,0,0,0,296,247,1,south_east,0,0,15
SRC01TR,0.16,6.88,FALSE,.,23,-92.22,1276,1049.3,729.4,2,49.98,1254,1049.6,721.6,RIGHT,NONE,0,15,1,523,north_west,0,south_east,0,0,0,0,296,247,1,south_east,0,0,15
SRC01TR,5.52,112.7,FALSE,LEFT,49,-146.46,675,627,687,1,257.89,627,851.4,537.8,RIGHT,NONE,0,16,1,224,north_west,0,south_east,0,0,0,0,318,269,1,south_west,0,0,16
SRC01TR,0.96,43.74,FALSE,RIGHT,22,-17.16,871,654,726.5,2,87.7,850,608.9,712.5,RIGHT,NONE,0,16,1,224,north_west,0,south_east,0,0,0,0,318,269,1,south_west,0,0,16
SRC01TR,5.78,140.86,FALSE,RIGHT,41,-34.08,718,1060.2,701.1,1,278.22,678,827,542.7,RIGHT,NONE,0,17,2,375,north_west,0,south_east,0,0,0,0,356,311,0,north_east,1,0,17
SRC01TR,8.13,176.72,FALSE,UP,46,87.71,863,1054.7,305.1,2,311.33,818,1038.8,702.7,RIGHT,NONE,0,17,2,375,north_west,0,south_east,0,0,0,0,356,311,0,north_east,1,0,17
SRC01TR,5.98,122.01,FALSE,RIGHT,49,-41.08,913,1052.5,716.5,1,345.14,865,832.8,524.2,RIGHT,NONE,0,18,1,547,north_west,0,south_east,0,0,0,0,233,184,1,south_east,0,0,18
SRC01TR,6.15,130.81,FALSE,UP,47,128.4,828,639.1,284.4,1,224.56,782,824.7,518.8,RIGHT,NONE,0,19,1,446,north_west,0,south_east,0,0,0,0,260,214,1,north_west,0,0,19
SRC01TR,0.44,22.97,FALSE,.,19,9.2,1156,632.2,287.1,2,58.4,1138,611.2,290.5,RIGHT,NONE,0,19,1,446,north_west,0,south_east,0,0,0,0,260,214,1,north_west,0,0,19
SRC01TR,0.4,22.49,FALSE,.,18,3.21,449,834.6,527,1,45.35,432,815,528.1,RIGHT,NONE,0,20,1,653,north_west,0,south_east,0,0,0,0,259,214,1,north_west,0,0,20
SRC01TR,6.55,142.49,FALSE,UP,46,127.63,1034,619.4,261.8,2,243.19,989,814.1,514.6,RIGHT,NONE,0,20,1,653,north_west,0,south_east,0,0,0,0,259,214,1,north_west,0,0,20
SRC01TR,0.66,50.86,FALSE,RIGHT,13,-2.67,1336,646.4,295.4,3,54.79,1324,614.2,293.9,RIGHT,NONE,0,20,1,653,north_west,0,south_east,0,0,0,0,259,214,1,north_west,0,0,20
SRC01TR,5.33,129.95,FALSE,UP,41,130.8,867,654.3,317.4,1,208.57,827,823.5,513.6,RIGHT,NONE,0,21,1,446,north_west,0,south_east,0,0,0,0,286,245,1,north_west,0,0,21
SRC01TR,5.37,131.08,FALSE,UP,41,133.77,1040,660.8,324,1,223.73,1000,841.3,512.8,RIGHT,NONE,0,22,1,622,north_west,0,south_east,0,0,0,0,283,244,1,north_west,0,0,22
SRC01TR,0.62,30.77,FALSE,UP,20,102.14,1317,629.4,305.6,2,57.78,1298,635.7,334.9,RIGHT,NONE,0,22,1,622,north_west,0,south_east,0,0,0,0,283,244,1,north_west,0,0,22
SRC01TR,6.38,138.65,FALSE,RIGHT,46,39.94,962,1079.8,305.6,1,271.79,917,841.9,505,RIGHT,NONE,0,23,1,549,north_west,0,south_east,0,0,0,0,279,234,1,north_east,0,0,23
SRC01TR,0.46,28.64,FALSE,.,16,104.53,1235,1054,311,2,45,1220,1059.6,332.6,RIGHT,NONE,0,23,1,549,north_west,0,south_east,0,0,0,0,279,234,1,north_east,0,0,23
SRC01TR,0.47,24.79,FALSE,.,19,165.32,466,819.5,512.5,1,48.74,448,841.6,518.3,RIGHT,NONE,0,24,1,523,north_west,0,south_east,0,0,0,0,274,229,1,north_east,0,0,24
SRC01TR,0.72,51.71,FALSE,RIGHT,14,1.63,657,859.9,507.6,2,56.51,644,824.8,508.6,RIGHT,NONE,0,24,1,523,north_west,0,south_east,0,0,0,0,274,229,1,north_east,0,0,24
SRC01TR,6.5,141.21,FALSE,RIGHT,46,41.77,928,1067.3,292.8,3,290.45,883,831.6,503.5,RIGHT,NONE,0,24,1,523,north_west,0,south_east,0,0,0,0,274,229,1,north_east,0,0,24
SRC01TR,0.33,17.2,FALSE,.,19,63.94,1189,1058.5,308.5,4,46.88,1171,1051.5,322.8,RIGHT,NONE,0,24,1,523,north_west,0,south_east,0,0,0,0,274,229,1,north_east,0,0,24
SRC01TR,0.22,37.18,FALSE,.,6,171.51,457,816.3,527.6,1,32.13,452,827,529.2,RIGHT,NONE,0,25,1,385,north_west,0,south_east,0,0,0,0,251,209,1,north_west,0,0,25
SRC01TR,5.91,137.43,FALSE,UP,43,128.79,770,646.2,304.2,2,218.17,728,826.1,528.3,RIGHT,NONE,0,25,1,385,north_west,0,south_east,0,0,0,0,251,209,1,north_west,0,0,25
SRC01TR,0.98,54.5,FALSE,LEFT,18,137.19,324,814.5,500.9,1,60.58,307,849.4,533.3,RIGHT,NONE,0,26,1,408,north_west,0,south_east,0,0,0,0,227,182,1,north_east,0,0,26
SRC01TR,6.97,151.59,FALSE,RIGHT,46,32.06,768,1083.2,323.6,2,284.98,723,795.7,503.7,RIGHT,NONE,0,26,1,408,north_west,0,south_east,0,0,0,0,227,182,1,north_east,0,0,26
SRC01TR,4.74,124.83,FALSE,RIGHT,38,6.03,951,1069.1,520.8,1,218.68,914,839.6,545.1,RIGHT,NONE,0,27,2,593,north_west,0,south_east,0,0,0,0,336,299,0,south_east,1,0,27
SRC01TR,3.98,104.71,FALSE,DOWN,38,-84.01,1062,1055.6,728.2,2,207.31,1025,1035.3,534.1,RIGHT,NONE,0,27,2,593,north_west,0,south_east,0,0,0,0,336,299,0,south_east,1,0,27
SRC01TR,5.52,108.25,FALSE,RIGHT,51,-44.97,935,1019.7,721.5,1,316.41,885,829.3,530.5,RIGHT,NONE,0,28,1,479,north_west,0,south_east,0,0,0,0,335,285,1,south_east,0,0,28
SRC01TR,0.8,33.25,FALSE,RIGHT,24,4.8,1149,1056,751.2,2,93.28,1126,1017,754.5,RIGHT,NONE,0,28,1,479,north_west,0,south_east,0,0,0,0,335,285,1,south_east,0,0,28
SRC01TR,5.52,122.66,FALSE,LEFT,45,139.44,935,634.4,362.2,1,192.45,891,838.2,536.8,RIGHT,NONE,0,29,1,486,north_west,0,south_east,0,0,0,0,315,271,1,north_west,0,0,29
SRC01TR,0.91,53.32,FALSE,UP,17,54.87,1123,642.1,335,2,61.63,1107,616.7,371.1,RIGHT,NONE,0,29,1,486,north_west,0,south_east,0,0,0,0,315,271,1,north_west,0,0,29
SRC01TR,5.57,113.66,FALSE,LEFT,49,-142.13,835,632,683,1,309.54,787,846.1,515.8,RIGHT,NONE,0,30,1,379,north_west,0,south_east,0,0,0,0,323,275,1,south_west,0,0,30
SRC01TR,1.06,48.27,FALSE,RIGHT,22,-10.57,1112,670.3,731.3,2,96.05,1091,619.2,721.7,RIGHT,NONE,0,30,1,379,north_west,0,south_east,0,0,0,0,323,275,1,south_west,0,0,30
SRC01TR,2.18,70.27,FALSE,DOWN,31,-134.78,1028,744.9,595.7,1,109.1,998,819.4,520.4,RIGHT,NONE,0,31,2,668,north_west,0,south_east,0,0,0,0,310,271,0,south_west,1,0,31
SRC01TR,2.78,69.58,FALSE,LEFT,40,-143.88,1113,633.8,666.1,2,246.38,1074,743.4,585.8,RIGHT,NONE,0,31,2,668,north_west,0,south_east,0,0,0,0,310,271,0,south_west,1,0,31
SRC01TR,6.13,117.83,FALSE,RIGHT,52,-33.32,821,1076.2,693.3,1,268.99,770,826.6,528.7,RIGHT,NONE,0,32,1,367,north_west,0,south_east,0,0,0,0,320,269,1,south_east,0,0,32
SRC01TR,0.59,59.28,FALSE,LEFT,10,-150.48,985,1051.1,729.1,2,52.25,976,1076.4,714.7,RIGHT,NONE,0,32,1,367,north_west,0,south_east,0,0,0,0,320,269,1,south_east,0,0,32
SRC01TR,0.31,38.71,FALSE,.,8,-161,425,814.6,524.9,1,35.61,418,828.8,520,RIGHT,NONE,0,33,1,664,north_west,0,south_east,0,0,0,0,259,206,1,north_west,0,0,33
SRC01TR,6.2,114.76,FALSE,UP,54,131.08,1057,614.6,292.2,2,219.95,1004,812.7,519.7,RIGHT,NONE,0,33,1,664,north_west,0,south_east,0,0,0,0,259,206,1,north_west,0,0,33
SRC01TR,1.04,43.29,FALSE,RIGHT,24,5.67,1335,650.8,289.5,3,92.53,1312,600.4,294.5,RIGHT,NONE,0,33,1,664,north_west,0,south_east,0,0,0,0,259,206,1,north_west,0,0,33
SRC01TR,0.09,5.76,FALSE,.,16,-10.28,454,856.8,527.2,1,29.01,439,852.4,526.4,RIGHT,NONE,0,34,2,654,north_west,0,south_east,0,0,0,0,379,338,0,south_west,1,0,34
SRC01TR,5.75,112.67,FALSE,RIGHT,51,-39.23,1027,1066.2,692.5,2,319.46,977,849.2,514.8,RIGHT,NONE,0,34,2,654,north_west,0,south_east,0,0,0,0,379,338,0,south_west,1,0,34
SRC01TR,8.67,206.47,FALSE,LEFT,42,177.59,1167,642.4,685,3,352.15,1126,1066.5,703,RIGHT,NONE,0,34,2,654,north_west,0,south_east,0,0,0,0,379,338,0,south_west,1,0,34
SRC01TR,1.23,58.39,FALSE,RIGHT,21,-15.16,481,892.1,548.3,1,94.48,461,834.7,532.7,RIGHT,NONE,0,35,2,750,north_west,0,south_east,0,0,0,0,369,322,0,north_east,1,0,35
SRC01TR,0.88,62.53,FALSE,LEFT,14,156.04,651,831.7,533.6,2,67.29,638,870.5,550.9,RIGHT,NONE,0,35,2,750,north_west,0,south_east,0,0,0,0,369,322,0,north_east,1,0,35
SRC01TR,4.95,137.54,FALSE,RIGHT,36,-20.75,1140,1049.1,619.6,3,236.89,1105,823.6,534,RIGHT,NONE,0,35,2,750,north_west,0,south_east,0,0,0,0,369,322,0,north_east,1,0,35
SRC01TR,6.55,136.44,FALSE,UP,48,85.46,1251,1053.4,292.7,4,220.04,1204,1028.1,611.3,RIGHT,NONE,0,35,2,750,north_west,0,south_east,0,0,0,0,369,322,0,north_east,1,0,35
SRC01TR,0.35,43.89,FALSE,.,8,167.13,468,821.6,522.3,1,39.54,461,838.2,526.1,RIGHT,NONE,0,36,1,726,north_west,0,south_east,0,0,0,0,261,214,1,north_west,0,0,36
SRC01TR,0.56,30.84,FALSE,RIGHT,18,11.33,671,853.5,518.2,2,57.9,654,827.1,523.5,RIGHT,NONE,0,36,1,726,north_west,0,south_east,0,0,0,0,261,214,1,north_west,0,0,36
SRC01TR,5.47,114.05,FALSE,LEFT,48,136.63,1120,653.1,317.4,3,225.85,1073,846.5,500.3,RIGHT,NONE,0,36,1,726,north_west,0,south_east,0,0,0,0,261,214,1,north_west,0,0,36
SRC01TR,1.01,59.58,FALSE,UP,17,77.71,1297,645.8,279.1,4,78.55,1281,635.3,327.3,RIGHT,NONE,0,36,1,726,north_west,0,south_east,0,0,0,0,261,214,1,north_west,0,0,36
SRC01TR,0.69,18.28,FALSE,RIGHT,38,7.64,1659,681.2,308.1,5,68.92,1622,647.7,312.6,RIGHT,NONE,0,36,1,726,north_west,0,south_east,0,0,0,0,261,214,1,north_west,0,0,36
SRC01TR,4.54,92.74,FALSE,RIGHT,49,-40.02,897,1010.1,650.9,1,281.19,849,840.8,508.3,RIGHT,NONE,0,37,2,509,north_west,0,south_east,0,0,0,0,435,411,0,south_east,1,0,37
SRC01TR,1.38,57.33,FALSE,RIGHT,24,-38.72,1064,1063.1,701.3,2,118.71,1041,1010.6,659,RIGHT,NONE,0,37,2,509,north_west,0,south_east,0,0,0,0,435,411,0,south_east,1,0,37
SRC01TR,0.23,45.71,FALSE,.,5,164.87,450,824.3,532.3,1,30.2,446,835,535.2,RIGHT,NONE,0,38,1,670,north_west,0,south_east,0,0,0,0,297,258,1,south_west,0,0,38
SRC01TR,0.54,28.45,FALSE,RIGHT,19,19.57,717,859.2,518.6,2,58.87,699,834.5,527.4,RIGHT,NONE,0,38,1,670,north_west,0,south_east,0,0,0,0,297,258,1,south_west,0,0,38
SRC01TR,6,150.02,FALSE,LEFT,40,-149.98,1088,612.2,678.6,3,274.39,1049,865.5,531.8,RIGHT,NONE,0,38,1,670,north_west,0,south_east,0,0,0,0,297,258,1,south_west,0,0,38
SRC01TR,0.98,60.96,FALSE,DOWN,16,-69.7,1272,624.7,733.4,4,73.03,1257,608.1,688.3,RIGHT,NONE,0,38,1,670,north_west,0,south_east,0,0,0,0,297,258,1,south_west,0,0,38
SRC01TR,0.61,31.88,FALSE,RIGHT,19,-10.59,1543,655.3,741.9,5,65.02,1525,626.1,736.4,RIGHT,NONE,0,38,1,670,north_west,0,south_east,0,0,0,0,297,258,1,south_west,0,0,38
SRC01TR,6.25,138.91,FALSE,RIGHT,45,38.74,882,1073,318.1,1,277.72,838,835.8,508.4,RIGHT,NONE,0,39,1,455,north_west,0,south_east,0,0,0,0,292,248,1,north_east,0,0,39
SRC01TR,0.57,31.45,FALSE,UP,18,53.28,1134,1057.9,310.7,2,53.34,1117,1041.4,332.8,RIGHT,NONE,0,39,1,455,north_west,0,south_east,0,0,0,0,292,248,1,north_east,0,0,39
SRC01TR,5.44,115.65,FALSE,RIGHT,47,-34.19,1124,1052.6,703.8,1,312.34,1078,833.4,554.3,RIGHT,NONE,0,40,2,755,north_west,0,south_east,0,0,0,0,403,355,0,north_east,1,0,40
SRC01TR,8.02,163.75,FALSE,UP,49,87.5,1280,1076.2,309,2,283.43,1232,1059.1,702.2,RIGHT,NONE,0,40,2,755,north_west,0,south_east,0,0,0,0,403,355,0,north_east,1,0,40
SRC01TR,5.96,116.85,FALSE,RIGHT,51,-44.65,927,1041.8,730,1,300.84,877,835.1,525,RIGHT,NONE,0,41,1,474,north_west,0,south_east,0,0,0,0,320,270,1,south_east,0,0,41
SRC01TR,0.88,35.29,FALSE,RIGHT,25,7.38,1120,1086.9,736.2,2,101.43,1096,1043.9,741.8,RIGHT,NONE,0,41,1,474,north_west,0,south_east,0,0,0,0,320,270,1,south_east,0,0,41
SRC01TR,0.71,51.03,FALSE,LEFT,14,174.79,1311,1035.6,733.1,3,58.43,1298,1070.5,736.3,RIGHT,NONE,0,41,1,474,north_west,0,south_east,0,0,0,0,320,270,1,south_east,0,0,41
SRC01TR,4.8,106.67,FALSE,LEFT,45,-141.76,944,653.6,654.2,1,276.95,900,837,509.2,RIGHT,NONE,0,42,1,550,north_west,0,south_east,0,0,0,0,260,216,1,south_west,0,0,42
SRC01TR,0.96,43.76,FALSE,LEFT,22,-155.42,1247,597.3,697.3,2,90.46,1226,640.2,677.6,RIGHT,NONE,0,42,1,550,north_west,0,south_east,0,0,0,0,260,216,1,south_west,0,0,42
SRC01TR,4.54,122.8,FALSE,RIGHT,37,-30.63,499,1046.3,653.9,1,230.64,463,855.9,540.7,RIGHT,NONE,0,43,1,785,north_west,0,south_east,1,0,0,0,64,27,0,north_west,1,0,43
SRC01TR,2.88,99.37,FALSE,LEFT,29,160.52,733,892.4,595.4,2,157.83,705,1024.7,642.4,RIGHT,NONE,0,43,1,785,north_west,0,south_east,1,0,0,0,64,27,0,north_west,1,0,43
SRC01TR,5.41,142.3,FALSE,LEFT,38,-162.38,984,628.1,686.9,3,260.87,947,879.6,606.7,RIGHT,NONE,0,43,1,785,north_west,0,south_east,1,0,0,0,64,27,0,north_west,1,0,43
SRC01TR,7.31,126.01,FALSE,UP,58,86.54,1238,654,329.6,4,267.46,1181,632.5,686.7,RIGHT,NONE,0,43,1,785,north_west,0,south_east,1,0,0,0,64,27,0,north_west,1,0,43
SRC01TR,0.57,52.02,FALSE,UP,11,80.71,1488,656,311.9,5,51.48,1478,651.5,339.4,RIGHT,NONE,0,43,1,785,north_west,0,south_east,1,0,0,0,64,27,0,north_west,1,0,43
SRC01TR,1.62,73.84,FALSE,LEFT,22,142.37,335,782,482.6,1,92.86,314,844.4,530.8,RIGHT,NONE,0,44,2,325,north_west,0,south_east,0,0,0,0,260,219,0,north_east,1,0,44
SRC01TR,1.58,75.41,FALSE,UP,21,81.3,509,777.9,405.5,2,103.19,489,766.3,481.5,RIGHT,NONE,0,44,2,325,north_west,0,south_east,0,0,0,0,260,219,0,north_east,1,0,44
SRC01TR,4.59,109.38,FALSE,RIGHT,42,18.18,718,976,331.4,3,180.91,677,764.1,401,RIGHT,NONE,0,44,2,325,north_west,0,south_east,0,0,0,0,260,219,0,north_east,1,0,44
SRC01TR,2.95,84.27,FALSE,RIGHT,35,18.72,822,1089.7,301.1,4,267.26,788,953.8,347.2,RIGHT,NONE,0,44,2,325,north_west,0,south_east,0,0,0,0,260,219,0,north_east,1,0,44
SRC01TR,0.87,61.95,FALSE,LEFT,14,-168.96,1111,1050.4,334.7,5,69.22,1098,1091.9,326.6,RIGHT,NONE,0,44,2,325,north_west,0,south_east,0,0,0,0,260,219,0,north_east,1,0,44
SRC01TR,5.52,128.32,FALSE,UP,43,134.15,925,652.7,328.3,1,219.67,883,839.5,520.9,RIGHT,NONE,0,45,1,513,north_west,0,south_east,0,0,0,0,276,234,1,north_west,0,0,45
SRC01TR,0.98,57.58,FALSE,RIGHT,17,18.36,1176,678.2,323.8,2,71.78,1160,633,338.8,RIGHT,NONE,0,45,1,513,north_west,0,south_east,0,0,0,0,276,234,1,north_west,0,0,45
SRC01TR,5.68,118.3,FALSE,LEFT,48,-139.15,717,632,700.3,1,269.89,670,841.4,518.7,RIGHT,NONE,0,46,1,300,north_west,0,south_east,0,0,0,0,285,238,1,south_west,0,0,46
SRC01TR,0.57,30.09,FALSE,RIGHT,19,5.7,970,642.1,730,2,54.46,952,614.2,732.8,RIGHT,NONE,0,46,1,300,north_west,0,south_east,0,0,0,0,285,238,1,south_west,0,0,46
SRC01TR,0.4,21.31,FALSE,.,19,161.04,1255,609.4,732,3,51.3,1237,628.2,738.5,RIGHT,NONE,0,46,1,300,north_west,0,south_east,0,0,0,0,285,238,1,south_west,0,0,46
SRC01TR,0.58,41.36,FALSE,RIGHT,14,37.42,370,864.7,496.4,1,46.64,357,842.4,513.5,RIGHT,NONE,0,47,1,231,north_west,0,south_east,0,0,0,0,295,243,1,south_east,0,0,47
SRC01TR,6.8,128.39,FALSE,RIGHT,53,-44.55,656,1086.4,719.5,2,328.76,604,850,485.6,RIGHT,NONE,0,47,1,231,north_west,0,south_east,0,0,0,0,295,243,1,south_east,0,0,47
SRC01TR,0.54,41.67,FALSE,UP,13,116.13,873,1064,701.3,3,42.01,861,1075.7,725.3,RIGHT,NONE,0,47,1,231,north_west,0,south_east,0,0,0,0,295,243,1,south_east,0,0,47
SRC01TR,6.05,140.59,FALSE,RIGHT,43,42.42,1029,1049,329.9,1,254.79,987,832.1,528.3,RIGHT,NONE,0,48,1,633,north_west,0,south_east,0,0,0,0,263,221,1,north_east,0,0,48
SRC01TR,1,45.49,FALSE,RIGHT,22,15.36,1294,1070.3,335.8,2,87.29,1273,1023.3,348.7,RIGHT,NONE,0,48,1,633,north_west,0,south_east,0,0,0,0,263,221,1,north_east,0,0,48
SRC01TR,6,119.97,FALSE,RIGHT,50,-40.91,1052,1063.6,715.1,1,326.52,1003,842.6,522.8,RIGHT,NONE,0,49,1,670,north_west,0,south_east,0,0,0,0,249,200,1,south_east,0,0,49
SRC01TR,0.11,4.1,FALSE,.,28,-22.85,1245,1069.2,722.9,2,68.04,1218,1064,720.7,RIGHT,NONE,0,49,1,670,north_west,0,south_east,0,0,0,0,249,200,1,south_east,0,0,49
SRC01TR,5.73,136.32,FALSE,UP,42,129.45,762,646.7,320.4,1,225.03,721,823.5,535.5,RIGHT,NONE,0,50,1,380,north_west,0,south_east,0,0,0,0,248,207,1,north_west,0,0,50
SRC01TR,0.94,58.98,FALSE,RIGHT,16,15.67,1149,675.5,333.1,2,70.91,1134,631.3,345.5,RIGHT,NONE,0,50,1,380,north_west,0,south_east,0,0,0,0,248,207,1,north_west,0,0,50
SRC01TR,6.84,145.52,FALSE,UP,47,47.92,959,1070.5,260.8,1,283.89,913,847.5,508,RIGHT,NONE,0,51,1,569,north_west,0,south_east,0,0,0,0,268,222,1,north_east,0,0,51
SRC01TR,1.07,59.41,FALSE,RIGHT,18,8.6,1251,1098.3,286.7,2,77.31,1234,1046.7,294.5,RIGHT,NONE,0,51,1,569,north_west,0,south_east,0,0,0,0,268,222,1,north_east,0,0,51
SRC01TR,0.65,17.19,FALSE,LEFT,38,-176.04,1506,1057.3,301.8,3,62.53,1469,1089.1,299.6,RIGHT,NONE,0,51,1,569,north_west,0,south_east,0,0,0,0,268,222,1,north_east,0,0,51
SRC01TR,5.98,149.61,FALSE,RIGHT,40,-37.3,1202,1085.5,719.4,1,257.64,1163,853.2,541.5,RIGHT,NONE,0,52,1,786,north_west,0,south_east,0,0,0,0,284,245,1,south_east,0,0,52
SRC01TR,0.81,36.6,FALSE,RIGHT,22,3.6,1396,1100.3,724.8,2,87.51,1375,1060.8,727.3,RIGHT,NONE,0,52,1,786,north_west,0,south_east,0,0,0,0,284,245,1,south_east,0,0,52
SRC01TR,0.71,51,FALSE,LEFT,14,-162.68,1618,1051.2,747,3,56.98,1605,1084.7,736.5,RIGHT,NONE,0,52,1,786,north_west,0,south_east,0,0,0,0,284,245,1,south_east,0,0,52
SRC01TR,5.29,151.03,FALSE,LEFT,35,-135.43,1039,662.5,688.1,1,309.24,1005,845.9,506.9,RIGHT,NONE,0,53,1,668,north_west,0,south_east,0,0,0,0,250,216,1,south_west,0,0,53
SRC01TR,5.7,150,FALSE,LEFT,38,-144.21,1036,607.3,686.8,1,284.87,999,832.7,523.8,RIGHT,NONE,0,54,1,651,north_west,0,south_east,0,0,0,0,252,215,1,south_west,0,0,54
SRC01TR,0.63,48.65,FALSE,LEFT,13,-163.21,1310,570.4,684.4,2,53.21,1298,600.1,675.4,RIGHT,NONE,0,54,1,651,north_west,0,south_east,0,0,0,0,252,215,1,south_west,0,0,54
SRC01TR,1.34,67.09,FALSE,RIGHT,20,-3.82,1507,653,691.2,3,102.61,1488,587.4,686.8,RIGHT,NONE,0,54,1,651,north_west,0,south_east,0,0,0,0,252,215,1,south_west,0,0,54
SRC01TR,2.54,97.87,FALSE,LEFT,26,-156.51,981,710.1,574.8,1,158.28,956,823.4,525.4,RIGHT,NONE,0,55,2,617,north_west,0,south_east,0,0,0,0,332,283,0,south_east,1,0,55
SRC01TR,5.74,114.87,FALSE,RIGHT,50,-14.24,1083,985.6,648.8,2,333.26,1034,714.5,579.7,RIGHT,NONE,0,55,2,617,north_west,0,south_east,0,0,0,0,332,283,0,south_east,1,0,55
SRC01TR,1.62,73.6,FALSE,RIGHT,22,-23.53,1260,1057.4,709.3,3,125.32,1239,984.8,677.5,RIGHT,NONE,0,55,2,617,north_west,0,south_east,0,0,0,0,332,283,0,south_east,1,0,55
SRC01TR,5.42,126.04,FALSE,UP,43,128.59,1176,683.5,312.4,1,224.06,1134,847.6,518.5,RIGHT,NONE,0,56,1,783,north_west,0,south_east,0,0,0,0,259,217,1,north_west,0,0,56
SRC01TR,5.79,141.3,FALSE,LEFT,41,136.14,1176,639.2,325.8,1,219.77,1136,842.2,521.1,RIGHT,NONE,0,57,1,775,north_west,0,south_east,0,0,0,0,267,227,1,north_west,0,0,57
SRC01TR,1.1,47.65,FALSE,RIGHT,23,16.21,1432,670.1,319.3,2,96.37,1410,618.9,334.2,RIGHT,NONE,0,57,1,775,north_west,0,south_east,0,0,0,0,267,227,1,north_west,0,0,57
SRC01TR,0.52,52.46,FALSE,LEFT,10,170.54,1635,620.7,324.6,3,48.43,1626,645.9,328.8,RIGHT,NONE,0,57,1,775,north_west,0,south_east,0,0,0,0,267,227,1,north_west,0,0,57
SRC01TR,2.1,83.86,FALSE,UP,25,124.57,357,777,446.7,1,101.84,333,834.7,530.6,RIGHT,NONE,0,58,1,530,north_west,0,south_east,1,0,0,0,305,253,0,south_west,1,0,58
SRC01TR,1.4,66.49,FALSE,UP,21,130.63,602,703.2,389.1,2,85.52,582,747.3,440.6,RIGHT,NONE,0,58,1,530,north_west,0,south_east,1,0,0,0,305,253,0,south_west,1,0,58
SRC01TR,6.57,123.98,FALSE,DOWN,53,-103.08,968,627.6,719,3,314.44,916,700.1,405.7,RIGHT,NONE,0,58,1,530,north_west,0,south_east,1,0,0,0,305,253,0,south_west,1,0,58
SRC01TR,0.9,47.62,FALSE,UP,19,55.36,1144,652,706.7,4,61.22,1126,626.8,743.4,RIGHT,NONE,0,58,1,530,north_west,0,south_east,1,0,0,0,305,253,0,south_west,1,0,58
SRC01TR,5.75,130.57,FALSE,UP,44,128.68,987,648.8,307.3,1,210.1,944,823.3,525.5,RIGHT,NONE,0,59,1,585,north_west,0,south_east,0,0,0,0,268,225,1,north_west,0,0,59
SRC01TR,6.33,150.81,FALSE,RIGHT,42,43.91,1188,1065.3,310,1,268.98,1147,843.3,523.7,RIGHT,NONE,0,60,1,796,north_west,0,south_east,0,0,0,0,272,231,1,north_east,0,0,60
SRC01TR,5.24,111.56,FALSE,LEFT,47,-143.63,1021,620.9,666.4,1,252.44,975,826.5,514.5,RIGHT,NONE,0,61,1,609,north_west,0,south_east,0,0,0,0,279,232,1,south_west,0,0,61
SRC01TR,0.36,39.83,FALSE,.,9,-69.33,1246,614.1,697.4,2,38.4,1238,607.9,680.9,RIGHT,NONE,0,61,1,609,north_west,0,south_east,0,0,0,0,279,232,1,south_west,0,0,61
SRC01TR,5.99,133.11,FALSE,RIGHT,45,-31.21,887,1086.4,682.4,1,278.53,843,836.4,530.6,RIGHT,NONE,0,62,1,485,north_west,0,south_east,0,0,0,0,282,238,1,south_east,0,0,62
SRC01TR,1.03,64.35,FALSE,DOWN,16,-85.46,1066,1067.3,741.5,2,75.77,1051,1063.3,690.9,RIGHT,NONE,0,62,1,485,north_west,0,south_east,0,0,0,0,282,238,1,south_east,0,0,62
SRC01TR,6.17,154.24,FALSE,RIGHT,40,40.54,891,1063.7,325.1,1,281.76,852,835.6,520.2,RIGHT,NONE,0,63,1,479,north_west,0,south_east,0,0,0,0,279,239,1,north_east,0,0,63
SRC01TR,0.89,42.57,FALSE,RIGHT,21,44.84,1124,1065.6,301.6,2,76.96,1104,1034.7,332.3,RIGHT,NONE,0,63,1,479,north_west,0,south_east,0,0,0,0,279,239,1,north_east,0,0,63
SRC01TR,0.57,24.73,FALSE,RIGHT,23,-2.48,1435,1077.6,338.2,3,56.87,1413,1049.9,337,RIGHT,NONE,0,63,1,479,north_west,0,south_east,0,0,0,0,279,239,1,north_east,0,0,63
SRC01TR,6.63,165.67,FALSE,RIGHT,40,-41.04,754,1085.7,717.6,1,311.9,715,841.8,504.6,RIGHT,NONE,0,64,1,317,north_west,0,south_east,0,0,0,0,303,264,1,south_east,0,0,64
SRC01TR,4.9,102.04,FALSE,DOWN,48,-56.97,974,972.2,716.9,1,253.32,927,842.3,516.1,RIGHT,NONE,0,65,2,568,north_west,0,south_east,0,0,0,0,350,317,0,south_west,1,0,65
SRC01TR,5.12,150.47,FALSE,LEFT,34,-172.81,1051,730.4,757.2,2,276.67,1018,978.6,725.6,RIGHT,NONE,0,65,2,568,north_west,0,south_east,0,0,0,0,350,317,0,south_west,1,0,65
SRC01TR,2.75,110.12,FALSE,LEFT,25,158.72,1124,603.3,714.5,3,197.73,1100,729,763.8,RIGHT,NONE,0,65,2,568,north_west,0,south_east,0,0,0,0,350,317,0,south_west,1,0,65
SRC01TR,5.62,114.75,FALSE,LEFT,49,-138.85,721,630.6,719.9,1,270.07,673,837,538.8,RIGHT,NONE,0,66,1,250,north_west,0,south_east,0,0,0,0,338,290,1,south_west,0,0,66
SRC01TR,0.96,40.05,FALSE,RIGHT,24,-2.41,938,653.5,741.8,2,97.02,915,606.4,739.8,RIGHT,NONE,0,66,1,250,north_west,0,south_east,0,0,0,0,338,290,1,south_west,0,0,66
SRC01TR,0.65,36.26,FALSE,LEFT,18,178.58,1142,606.3,738,3,62.32,1125,638.3,738.8,RIGHT,NONE,0,66,1,250,north_west,0,south_east,0,0,0,0,338,290,1,south_west,0,0,66
SRC01TR,5.93,131.68,FALSE,UP,45,128.53,829,651.2,312.1,1,186.86,785,830.6,537.6,RIGHT,NONE,0,67,1,403,north_west,0,south_east,0,0,0,0,292,248,1,north_west,0,0,67
SRC01TR,0.55,49.66,FALSE,LEFT,11,-172.44,1306,609.5,331.4,2,48.26,1296,635.9,327.9,RIGHT,NONE,0,67,1,403,north_west,0,south_east,0,0,0,0,292,248,1,north_west,0,0,67
SRC01TR,5.71,129.84,FALSE,UP,44,132.9,1190,643.9,306.4,1,222.15,1147,832.9,510,RIGHT,NONE,0,68,1,798,north_west,0,south_east,0,0,0,0,257,214,1,north_west,0,0,68
SRC01TR,1.13,53.86,FALSE,RIGHT,21,20.62,1473,668.9,307.6,2,92.24,1453,617.4,327,RIGHT,NONE,0,68,1,798,north_west,0,south_east,0,0,0,0,257,214,1,north_west,0,0,68
SRC01TR,0.26,14.51,FALSE,.,18,-5.88,435,843.9,535.6,1,37.91,418,831.3,534.3,RIGHT,NONE,0,69,1,443,north_west,0,south_east,0,0,0,0,278,66,1,north_west,0,0,69
SRC01TR,0.58,52.45,FALSE,LEFT,11,161.92,652,813.8,526,2,48.62,642,840.4,534.7,RIGHT,NONE,0,69,1,443,north_west,0,south_east,0,0,0,0,278,66,1,north_west,0,0,69
SRC01TR,5.5,130.89,FALSE,UP,42,129.18,854,653.8,310.5,3,190.3,813,822.6,517.8,RIGHT,NONE,0,69,1,443,north_west,0,south_east,0,0,0,0,278,66,1,north_west,0,0,69
SRC01TR,5.99,130.23,FALSE,RIGHT,46,41.52,725,1066.6,339.8,1,269.55,680,848.4,533,RIGHT,NONE,0,70,1,309,north_west,0,south_east,0,0,0,0,284,239,1,north_east,0,0,70
SRC01TR,0.74,57.22,FALSE,UP,13,66.41,916,1059.5,327.3,2,60.29,904,1045,360.5,RIGHT,NONE,0,70,1,309,north_west,0,south_east,0,0,0,0,284,239,1,north_east,0,0,70
SRC01TR,0.96,43.55,FALSE,RIGHT,22,-0.86,1183,1081.3,324.4,3,77.69,1162,1034.6,323.7,RIGHT,NONE,0,70,1,309,north_west,0,south_east,0,0,0,0,284,239,1,north_east,0,0,70
SRC01TR,3.09,96.44,FALSE,RIGHT,32,17.74,431,980.2,477.2,1,141.49,400,837.5,522.9,RIGHT,NONE,0,71,1,343,north_west,0,south_east,1,0,0,0,258,218,0,south_west,1,0,71
SRC01TR,5.4,131.83,FALSE,LEFT,41,-158.47,736,720.9,580.7,2,226.38,696,965,484.1,RIGHT,NONE,0,71,1,343,north_west,0,south_east,1,0,0,0,258,218,0,south_west,1,0,71
SRC01TR,2.82,97.17,FALSE,DOWN,29,-126.91,912,630,682.8,3,155.02,884,712.5,572.4,RIGHT,NONE,0,71,1,343,north_west,0,south_east,1,0,0,0,258,218,0,south_west,1,0,71
SRC01TR,4.11,105.36,FALSE,RIGHT,39,1.72,1031,1034.3,517.8,1,197.97,993,834.7,523.8,RIGHT,NONE,0,72,2,665,north_west,0,south_east,0,0,0,0,388,327,0,south_east,1,0,72
SRC01TR,2.99,48.22,FALSE,DOWN,62,-74.98,1185,1050.5,665.6,2,130.7,1124,1012.7,524.4,RIGHT,NONE,0,72,2,665,north_west,0,south_east,0,0,0,0,388,327,0,south_east,1,0,72
SRC01TR,1.03,57.21,FALSE,RIGHT,18,3.84,1380,1096.7,706.4,3,76.8,1363,1046.3,709.8,RIGHT,NONE,0,72,2,665,north_west,0,south_east,0,0,0,0,388,327,0,south_east,1,0,72
SRC01TR,0.31,43.87,FALSE,.,7,151.59,743,815.4,508.5,1,34.2,737,828.5,515.6,RIGHT,NONE,0,73,1,662,north_west,0,south_east,0,0,0,0,263,231,1,south_west,0,0,73
SRC01TR,4.64,140.47,FALSE,LEFT,33,-142.29,1057,630.5,648.5,2,253.07,1025,809.1,510,RIGHT,NONE,0,73,1,662,north_west,0,south_east,0,0,0,0,263,231,1,south_west,0,0,73
SRC01TR,0.68,56.32,FALSE,DOWN,12,-72.04,1255,621.6,685.2,3,55.19,1244,611.4,653.6,RIGHT,NONE,0,73,1,662,north_west,0,south_east,0,0,0,0,263,231,1,south_west,0,0,73
SRC01TR,5.57,139.3,FALSE,RIGHT,40,-35.62,704,1072.1,685.2,1,277.45,665,851.3,526.5,RIGHT,NONE,0,74,1,211,north_west,0,south_east,0,0,0,0,361,322,1,south_east,0,0,74
SRC01TR,0.54,54.09,FALSE,DOWN,10,-85.45,932,1049.2,698.2,2,48.49,923,1047.1,671.7,RIGHT,NONE,0,74,1,211,north_west,0,south_east,0,0,0,0,361,322,1,south_east,0,0,74
SRC01TR,1.18,62.27,FALSE,RIGHT,19,-17.91,459,890.1,544.1,1,88.53,441,835.5,526.4,RIGHT,NONE,0,75,2,791,north_west,0,south_east,0,0,0,0,363,270,0,south_east,1,0,75
SRC01TR,1.55,70.66,FALSE,UP,22,73.19,723,895.7,470.6,2,93.86,702,873.9,543,RIGHT,NONE,0,75,2,791,north_west,0,south_east,0,0,0,0,363,270,0,south_east,1,0,75
SRC01TR,1.25,65.59,FALSE,LEFT,19,-169.34,983,835.8,499.8,3,90.82,965,895.2,488.6,RIGHT,NONE,0,75,2,791,north_west,0,south_east,0,0,0,0,363,270,0,south_east,1,0,75
SRC01TR,6.71,72.18,FALSE,DOWN,93,-47.48,1289,1062.9,739,4,241.27,1197,841.5,496.6,RIGHT,NONE,0,75,2,791,north_west,0,south_east,0,0,0,0,363,270,0,south_east,1,0,75
SRC01TR,1,50.21,FALSE,UP,20,67.71,1465,1068.7,712.8,5,74.02,1446,1050,758.7,RIGHT,NONE,0,75,2,791,north_west,0,south_east,0,0,0,0,363,270,0,south_east,1,0,75
SRC01TR,6.3,133.98,FALSE,UP,47,45.63,1038,1053.8,296.6,1,265.9,992,839.8,515.6,RIGHT,NONE,0,76,1,634,north_west,0,south_east,0,0,0,0,271,225,1,north_east,0,0,76
SRC01TR,1,58.98,FALSE,RIGHT,17,15.07,1288,1071.6,317.5,2,75.56,1272,1024.4,330.2,RIGHT,NONE,0,76,1,634,north_west,0,south_east,0,0,0,0,271,225,1,north_east,0,0,76
SRC01TR,5.32,132.91,FALSE,LEFT,40,-143.97,792,617.6,691.7,1,222.14,753,827.2,538.8,RIGHT,NONE,0,77,1,365,north_west,0,south_east,0,0,0,0,294,255,1,south_west,0,0,77
SRC01TR,0.5,45.54,FALSE,RIGHT,11,-34.62,986,623.2,702.9,2,42.98,976,603,688.9,RIGHT,NONE,0,77,1,365,north_west,0,south_east,0,0,0,0,294,255,1,south_west,0,0,77
SRC01TR,5.12,138.42,FALSE,LEFT,37,-141.36,989,637.1,686,1,240.37,953,831.9,529.6,RIGHT,NONE,0,78,1,603,north_west,0,south_east,0,0,0,0,252,215,1,south_west,0,0,78
SRC01TR,0.74,52.51,FALSE,LEFT,14,-153.6,1225,586.1,695.3,2,58.63,1212,618.4,679.2,RIGHT,NONE,0,78,1,603,north_west,0,south_east,0,0,0,0,252,215,1,south_west,0,0,78
SRC01TR,1,55.83,FALSE,RIGHT,18,-2.23,424,875.8,516.7,1,73.53,407,827.1,514.8,RIGHT,NONE,0,79,1,778,north_west,0,south_east,0,0,0,0,296,20,1,north_west,0,0,79
SRC01TR,0.47,46.66,FALSE,.,10,168.81,938,823.7,521.5,2,42.18,929,845.9,525.9,RIGHT,NONE,0,79,1,778,north_west,0,south_east,0,0,0,0,296,20,1,north_west,0,0,79
SRC01TR,4.34,108.57,FALSE,LEFT,40,141.67,1205,660.5,381.7,3,185.61,1166,825.9,512.6,RIGHT,NONE,0,79,1,778,north_west,0,south_east,0,0,0,0,296,20,1,north_west,0,0,79
SRC01TR,1.6,76.11,FALSE,UP,21,102.83,1294,618.4,307.8,4,120.65,1274,635.7,383.7,RIGHT,NONE,0,79,1,778,north_west,0,south_east,0,0,0,0,296,20,1,north_west,0,0,79
SRC01TR,1.14,59.74,FALSE,UP,19,48.03,1387,643.4,281.2,5,87.53,1369,606.4,322.3,RIGHT,NONE,0,79,1,778,north_west,0,south_east,0,0,0,0,296,20,1,north_west,0,0,79
SRC01TR,5.94,134.94,FALSE,UP,44,134.71,794,634.2,302.6,1,211.04,751,837.2,507.9,RIGHT,NONE,0,80,1,377,north_west,0,south_east,0,0,0,0,285,242,1,north_west,0,0,80
SRC01TR,1.39,69.43,FALSE,RIGHT,20,10.91,1144,681.2,304,2,103.63,1125,614.8,316.8,RIGHT,NONE,0,80,1,377,north_west,0,south_east,0,0,0,0,285,242,1,north_west,0,0,80
SRC01TR,6.31,146.77,FALSE,RIGHT,43,37.45,1183,1096.6,340.3,1,261.8,1141,852.6,527.2,RIGHT,NONE,0,81,1,761,north_west,0,south_east,0,0,0,0,290,248,1,north_east,0,0,81
SRC01TR,0.45,13.23,FALSE,.,34,16.72,1721,1067.2,350.8,2,61.05,1688,1046.2,357.1,RIGHT,NONE,0,81,1,761,north_west,0,south_east,0,0,0,0,290,248,1,north_east,0,0,81
SRC01TR,5.62,108.07,FALSE,RIGHT,52,-43.72,778,1039.6,720.6,1,262.1,727,841.6,530.5,RIGHT,NONE,0,82,1,315,north_west,0,south_east,0,0,0,0,329,278,1,south_east,0,0,82
SRC01TR,0.37,13.16,FALSE,.,28,39.67,962,1054.9,716.1,2,79.11,935,1041,727.7,RIGHT,NONE,0,82,1,315,north_west,0,south_east,0,0,0,0,329,278,1,south_east,0,0,82
SRC01TR,5.36,105.19,FALSE,UP,51,48.88,1113,1007.3,330.2,1,158.04,1063,836,526.6,RIGHT,NONE,0,83,1,694,north_west,0,south_east,0,0,0,0,289,239,1,north_east,0,0,83
SRC01TR,1.68,80.09,FALSE,RIGHT,21,27.43,1259,1057.7,301.9,2,119.7,1239,985,339.6,RIGHT,NONE,0,83,1,694,north_west,0,south_east,0,0,0,0,289,239,1,north_east,0,0,83
SRC01TR,0.67,51.72,FALSE,UP,13,49.91,326,860.8,502.4,1,54.1,314,839.8,527.4,RIGHT,NONE,0,84,1,641,north_west,0,south_east,0,0,0,0,258,215,1,north_east,0,0,84
SRC01TR,1.37,68.42,FALSE,LEFT,20,-175.95,658,786.4,511.1,2,100.22,639,852.6,506.4,RIGHT,NONE,0,84,1,641,north_west,0,south_east,0,0,0,0,258,215,1,north_east,0,0,84
SRC01TR,7.34,166.86,FALSE,RIGHT,44,34.26,1030,1086.6,303.6,3,304.37,987,791.4,504.9,RIGHT,NONE,0,84,1,641,north_west,0,south_east,0,0,0,0,258,215,1,north_east,0,0,84
SRC01TR,1.68,76.39,FALSE,RIGHT,22,22.69,442,904.7,487.6,1,93.27,421,829.5,519.1,RIGHT,NONE,0,85,2,375,north_west,0,south_east,0,0,0,0,1591,909,0,south_east,1,0,85
SRC01TR,4.04,115.32,FALSE,RIGHT,35,-39.92,803,1047.7,616.4,2,194.09,769,897.1,490,RIGHT,NONE,0,85,2,375,north_west,0,south_east,0,0,0,0,1591,909,0,south_east,1,0,85
SRC01TR,1.93,49.51,FALSE,DOWN,39,-89.88,868,1027.7,719.2,3,94.6,830,1027.5,624.3,RIGHT,NONE,0,85,2,375,north_west,0,south_east,0,0,0,0,1591,909,0,south_east,1,0,85
SRC01TR,0.84,56.01,FALSE,RIGHT,15,-4.14,1432,1067.9,756.9,4,65.16,1418,1026.8,753.9,RIGHT,NONE,0,85,2,375,north_west,0,south_east,0,0,0,0,1591,909,0,south_east,1,0,85
SRC01TR,1.77,80.66,FALSE,LEFT,22,171.08,2100,973.8,754.5,5,114.06,2079,1059.7,768.1,RIGHT,NONE,0,85,2,375,north_west,0,south_east,0,0,0,0,1591,909,0,south_east,1,0,85
SRC01TR,6.29,118.72,FALSE,RIGHT,53,-39.86,719,1068.8,725.2,1,303.03,667,833.1,527.6,RIGHT,NONE,0,86,1,233,north_west,0,south_east,0,0,0,0,353,300,1,south_east,0,0,86
SRC01TR,0.81,44.84,FALSE,UP,18,96.24,904,1061,707.2,2,60.65,887,1065.3,746.8,RIGHT,NONE,0,86,1,233,north_west,0,south_east,0,0,0,0,353,300,1,south_east,0,0,86
SRC01TR,0.94,42.91,FALSE,RIGHT,22,-12.77,1193,1088.7,736.2,3,77.12,1172,1043.5,725.9,RIGHT,NONE,0,86,1,233,north_west,0,south_east,0,0,0,0,353,300,1,south_east,0,0,86
SRC01TR,3,96.77,FALSE,RIGHT,31,-36.7,455,946.1,626,1,166.35,425,829.2,538.6,RIGHT,NONE,0,87,1,687,north_west,0,south_east,1,0,0,0,255,211,0,north_east,1,0,87
SRC01TR,5.43,120.76,FALSE,UP,45,98.25,1064,896.6,362.1,2,191.36,1020,934.4,624,RIGHT,NONE,0,87,1,687,north_west,0,south_east,1,0,0,0,255,211,0,north_east,1,0,87
SRC01TR,5.02,152.27,FALSE,RIGHT,33,39.51,1123,1081.7,225.2,3,302.29,1091,893.1,380.9,RIGHT,NONE,0,87,1,687,north_west,0,south_east,1,0,0,0,255,211,0,north_east,1,0,87
SRC01TR,1.14,60.08,FALSE,DOWN,19,-92.37,1307,1049.9,324.9,4,84.71,1289,1052.2,269.3,RIGHT,NONE,0,87,1,687,north_west,0,south_east,1,0,0,0,255,211,0,north_east,1,0,87
SRC01TR,0.62,52.04,FALSE,RIGHT,12,-4.35,165,852,531,1,50.67,154,821.8,528.7,RIGHT,NONE,0,88,1,580,north_west,0,south_east,0,0,0,0,364,311,1,south_east,0,0,88
SRC01TR,5.95,110.09,FALSE,RIGHT,54,-39.45,1077,1055.6,716.7,2,276.84,1024,831.8,531.8,RIGHT,NONE,0,88,1,580,north_west,0,south_east,0,0,0,0,364,311,1,south_east,0,0,88
SRC01TR,0.78,52.15,FALSE,LEFT,15,-176.59,1323,1022.6,749.2,3,61.76,1309,1060.9,746.9,RIGHT,NONE,0,88,1,580,north_west,0,south_east,0,0,0,0,364,311,1,south_east,0,0,88
SRC01TR,4.73,124.52,FALSE,LEFT,38,142.03,986,668.7,394.9,1,182.08,949,849.8,536.4,RIGHT,NONE,0,89,1,565,north_west,0,south_east,0,0,0,0,286,249,1,north_west,0,0,89
SRC01TR,1.33,66.43,FALSE,UP,20,84.15,1143,654.7,324.2,2,88.85,1124,648.1,388.5,RIGHT,NONE,0,89,1,565,north_west,0,south_east,0,0,0,0,286,249,1,north_west,0,0,89
SRC01TR,5.59,127.02,FALSE,RIGHT,44,-40.97,856,1055.1,692.5,1,243.61,813,849.4,513.3,RIGHT,NONE,0,90,1,370,north_west,0,south_east,0,0,0,0,352,309,1,south_east,0,0,90
SRC01TR,1.14,60.18,FALSE,RIGHT,19,-42.94,1042,1086.7,733.4,2,84.83,1024,1045.6,695,RIGHT,NONE,0,90,1,370,north_west,0,south_east,0,0,0,0,352,309,1,south_east,0,0,90
SRC01TR,0.17,11.04,FALSE,.,15,-69.9,1403,1091.5,750,3,31.47,1389,1088.7,742.3,RIGHT,NONE,0,90,1,370,north_west,0,south_east,0,0,0,0,352,309,1,south_east,0,0,90
SRC01TR,0.77,55.19,FALSE,RIGHT,14,5.5,141,878.8,516.8,1,61.43,128,841.5,520.4,RIGHT,NONE,0,91,1,540,north_west,0,south_east,0,0,0,0,305,256,1,south_west,0,0,91
SRC01TR,5.9,118.04,FALSE,LEFT,50,-139.01,980,613.1,698.1,2,284.31,931,830.3,508.8,RIGHT,NONE,0,91,1,540,north_west,0,south_east,0,0,0,0,305,256,1,south_west,0,0,91
SRC01TR,0.95,39.41,FALSE,RIGHT,24,20.88,1181,642.2,700.2,3,101.21,1158,598.9,716.8,RIGHT,NONE,0,91,1,540,north_west,0,south_east,0,0,0,0,305,256,1,south_west,0,0,91
SRC01TR,0.46,51.08,FALSE,.,9,-171.88,1382,614,710.5,4,43.95,1374,636.3,707.3,RIGHT,NONE,0,91,1,540,north_west,0,south_east,0,0,0,0,305,256,1,south_west,0,0,91
SRC01TR,0.26,43.49,FALSE,.,6,38.53,811,837.8,519.2,1,30.13,806,827.9,527.1,RIGHT,NONE,0,92,1,789,north_west,0,south_east,0,0,0,0,273,232,1,south_east,0,0,92
SRC01TR,5.78,137.63,FALSE,RIGHT,42,-38.38,1197,1049.6,695.7,2,273.49,1156,828.7,520.2,RIGHT,NONE,0,92,1,789,north_west,0,south_east,0,0,0,0,273,232,1,south_east,0,0,92
SRC01TR,0.9,47.4,FALSE,DOWN,19,-61.44,1382,1055.1,731.2,3,70.34,1364,1034,692.2,RIGHT,NONE,0,92,1,789,north_west,0,south_east,0,0,0,0,273,232,1,south_east,0,0,92
SRC01TR,5.64,128.28,FALSE,RIGHT,44,31.97,1009,1064.2,385.1,1,222.84,966,831.5,530.5,RIGHT,NONE,0,93,2,620,north_west,0,south_east,0,0,0,0,442,395,0,south_east,1,0,93
SRC01TR,6.48,135.04,FALSE,DOWN,48,-83.24,1195,1083,715.9,2,237.07,1148,1045.7,400.5,RIGHT,NONE,0,93,2,620,north_west,0,south_east,0,0,0,0,442,395,0,south_east,1,0,93
SRC01TR,5.1,98.16,FALSE,LEFT,52,-147.83,1065,632.6,676.8,1,207.3,1014,843,543.9,RIGHT,NONE,0,94,1,601,north_west,0,south_east,0,0,0,0,330,279,1,south_west,0,0,94
SRC01TR,0.74,53.12,FALSE,DOWN,14,-59.13,1245,636,741.2,2,57.41,1232,617.3,709.7,RIGHT,NONE,0,94,1,601,north_west,0,south_east,0,0,0,0,330,279,1,south_west,0,0,94
SRC01TR,0.13,7.1,FALSE,.,18,87.22,468,844.3,532.2,1,37.35,451,844,538.4,RIGHT,NONE,0,95,1,622,north_west,0,south_east,0,0,0,0,301,255,1,south_west,0,0,95
SRC01TR,0.43,23.77,FALSE,.,18,110.3,736,834,516.5,2,44.81,719,841.2,536,RIGHT,NONE,0,95,1,622,north_west,0,south_east,0,0,0,0,301,255,1,south_west,0,0,95
SRC01TR,5.36,113.97,FALSE,LEFT,47,-141.13,1056,618.7,683.1,3,300.6,1010,822,518.7,RIGHT,NONE,0,95,1,622,north_west,0,south_east,0,0,0,0,301,255,1,south_west,0,0,95
SRC01TR,0.9,42.93,FALSE,RIGHT,21,-1.67,1323,637.2,721.5,4,79.59,1303,593,720.2,RIGHT,NONE,0,95,1,622,north_west,0,south_east,0,0,0,0,301,255,1,south_west,0,0,95
SRC01TR,0.33,40.77,FALSE,.,8,-168.9,1558,608.7,730.2,5,36.21,1551,624.4,727.1,RIGHT,NONE,0,95,1,622,north_west,0,south_east,0,0,0,0,301,255,1,south_west,0,0,95
SRC01TR,6.92,144.27,FALSE,UP,48,45.59,822,1092.7,287.1,1,265.3,775,856.7,528,RIGHT,NONE,0,96,1,400,north_west,0,south_east,0,0,0,0,289,242,1,north_east,0,0,96
SRC01TR,6.41,133.44,FALSE,RIGHT,48,39.69,724,1072,322.1,1,247.63,677,832.2,521.1,RIGHT,NONE,0,97,1,295,north_west,0,south_east,0,0,0,0,309,262,1,north_east,0,0,97
SRC01TR,0.89,59.53,FALSE,LEFT,15,173.92,993,1006.9,336.6,2,69.73,979,1050.1,341.2,RIGHT,NONE,0,97,1,295,north_west,0,south_east,0,0,0,0,309,262,1,north_east,0,0,97
SRC01TR,1.05,58.36,FALSE,RIGHT,18,-0.56,1188,1058.8,347.5,3,80.39,1171,1007.7,347,RIGHT,NONE,0,97,1,295,north_west,0,south_east,0,0,0,0,309,262,1,north_east,0,0,97
SRC01TR,6.32,117.06,FALSE,RIGHT,54,-44.29,809,1059.8,749.9,1,314.35,756,839,533.6,RIGHT,NONE,0,98,1,375,north_west,0,south_east,0,0,0,0,300,247,1,south_east,0,0,98
SRC01TR,0.69,28.66,FALSE,RIGHT,24,40.97,1040,1075.3,740.7,2,83.39,1017,1049.8,763,RIGHT,NONE,0,98,1,375,north_west,0,south_east,0,0,0,0,300,247,1,south_east,0,0,98
SRC01TR,5.72,116.66,FALSE,LEFT,49,-137.48,803,649.6,735.7,1,298.79,755,855,546.4,RIGHT,NONE,0,99,1,351,north_west,0,south_east,0,0,0,0,319,271,1,south_west,0,0,99
SRC01TR,0.56,43.31,FALSE,RIGHT,13,9.94,1256,651.4,744.3,2,47.62,1244,624.2,749.1,RIGHT,NONE,0,99,1,351,north_west,0,south_east,0,0,0,0,319,271,1,south_west,0,0,99
SRC01TR,5.88,117.56,FALSE,LEFT,50,-141.45,727,610.7,706.7,1,304.29,678,834.8,527.4,RIGHT,NONE,0,100,1,237,north_west,0,south_east,0,0,0,0,358,309,1,south_west,0,0,100
SRC01TR,1.02,44.42,FALSE,RIGHT,23,-8.2,997,645.4,738,2,101.71,975,595.8,730.8,RIGHT,NONE,0,100,1,237,north_west,0,south_east,0,0,0,0,358,309,1,south_west,0,0,100
SRC01TR,6.35,147.63,FALSE,RIGHT,43,39.23,961,1053.8,326.3,1,274.37,919,814.8,521.6,RIGHT,NONE,0,101,1,576,north_west,0,south_east,0,0,0,0,264,222,1,north_east,0,0,101
SRC01TR,0.57,13.16,FALSE,RIGHT,43,38.08,1506,1048.2,332.7,2,60.35,1464,1026.5,349.7,RIGHT,NONE,0,101,1,576,north_west,0,south_east,0,0,0,0,264,222,1,north_east,0,0,101
SRC01TR,0.98,57.39,FALSE,LEFT,17,168.69,92,798.7,521.5,1,77.23,76,845.1,530.8,RIGHT,NONE,0,102,1,485,north_west,0,south_east,0,0,0,0,265,229,1,south_west,0,0,102
SRC01TR,0.91,53.42,FALSE,RIGHT,17,-10.57,217,857.8,532.5,2,70.11,201,814.5,524.4,RIGHT,NONE,0,102,1,485,north_west,0,south_east,0,0,0,0,265,229,1,south_west,0,0,102
SRC01TR,5.33,144.17,FALSE,LEFT,37,-138.25,885,648.6,706.5,3,242.2,849,842.4,532.8,RIGHT,NONE,0,102,1,485,north_west,0,south_east,0,0,0,0,265,229,1,south_west,0,0,102
SRC01TR,0.85,40.27,FALSE,LEFT,21,-148.32,1176,601,723.2,4,78.67,1156,636.3,701.3,RIGHT,NONE,0,102,1,485,north_west,0,south_east,0,0,0,0,265,229,1,south_west,0,0,102
SRC01TR,7.15,155.54,FALSE,RIGHT,46,43.1,751,1106.7,277.6,1,265.02,706,852.3,515.7,RIGHT,NONE,0,103,1,308,north_west,0,south_east,0,0,0,0,311,266,1,north_east,0,0,103
SRC01TR,6.74,137.51,FALSE,RIGHT,49,43.72,995,1071.5,281.4,1,236.51,947,834.6,508.2,RIGHT,NONE,0,104,1,593,north_west,0,south_east,0,0,0,0,269,220,1,north_east,0,0,104
SRC01TR,0.45,24.77,FALSE,.,18,6.34,1287,1075.7,302.7,2,49.95,1270,1054.1,305.1,RIGHT,NONE,0,104,1,593,north_west,0,south_east,0,0,0,0,269,220,1,north_east,0,0,104
SRC01TR,6.95,151.16,FALSE,RIGHT,46,42.25,828,1082.7,308.6,1,271.61,783,832.3,536.3,RIGHT,NONE,0,105,1,443,north_west,0,south_east,0,0,0,0,252,208,1,north_east,0,0,105
SRC01TR,0.44,24.2,FALSE,.,18,18.11,1137,1090.3,309.5,2,46.86,1120,1070.1,316.1,RIGHT,NONE,0,105,1,443,north_west,0,south_east,0,0,0,0,252,208,1,north_east,0,0,105
SRC01TR,5.47,116.4,FALSE,UP,47,134.36,884,661.1,316.8,1,210.12,838,846.8,507.1,RIGHT,NONE,0,106,1,475,north_west,0,south_east,0,0,0,0,276,230,1,north_west,0,0,106
SRC01TR,0.71,41.58,FALSE,UP,17,55.29,1147,658.6,300.8,2,53.83,1131,639,329.1,RIGHT,NONE,0,106,1,475,north_west,0,south_east,0,0,0,0,276,230,1,north_west,0,0,106
SRC01TR,6.12,132.94,FALSE,UP,46,131.39,704,642.8,277.5,1,202.48,659,839.3,500.7,RIGHT,NONE,0,107,1,270,north_west,0,south_east,0,0,0,0,304,259,1,north_west,0,0,107
SRC01TR,6.75,146.76,FALSE,RIGHT,46,40.86,858,1079.5,300.9,1,288.18,813,831.1,516,RIGHT,NONE,0,108,1,439,north_west,0,south_east,0,0,0,0,285,240,1,north_east,0,0,108
SRC01TR,0.83,37.58,FALSE,LEFT,22,153.6,1081,1025.6,304,2,81.85,1060,1061.7,321.9,RIGHT,NONE,0,108,1,439,north_west,0,south_east,0,0,0,0,285,240,1,north_east,0,0,108
SRC01TR,0.53,26.28,FALSE,RIGHT,20,-2.24,1365,1060.4,311.3,3,61.02,1346,1034.8,310.3,RIGHT,NONE,0,108,1,439,north_west,0,south_east,0,0,0,0,285,240,1,north_east,0,0,108
SRC01TR,5.16,112.26,FALSE,LEFT,46,-137.9,900,659.7,683.1,1,272.44,855,846.3,514,RIGHT,NONE,0,109,1,463,north_west,0,south_east,0,0,0,0,302,256,1,south_west,0,0,109
SRC01TR,1.01,48.33,FALSE,LEFT,21,-162.78,1179,594.4,714.9,2,89.22,1159,641.9,700.1,RIGHT,NONE,0,109,1,463,north_west,0,south_east,0,0,0,0,302,256,1,south_west,0,0,109
SRC01TR,0.37,9.8,FALSE,.,38,-32.6,1438,610.9,726.7,3,50.24,1401,595.5,716.8,RIGHT,NONE,0,109,1,463,north_west,0,south_east,0,0,0,0,302,256,1,south_west,0,0,109
SRC01TR,5.31,129.43,FALSE,LEFT,41,-139.16,1143,645.1,687.8,1,218.2,1103,840.6,518.1,RIGHT,NONE,0,110,1,671,north_west,0,south_east,0,0,0,0,337,297,1,south_west,0,0,110
SRC01TR,0.45,26.32,FALSE,.,17,-98.4,1339,630.4,708,2,48.02,1323,633.6,686.2,RIGHT,NONE,0,110,1,671,north_west,0,south_east,0,0,0,0,337,297,1,south_west,0,0,110
SRC01TR,5.26,114.31,FALSE,LEFT,46,141.57,1032,635.7,349.1,1,240.49,987,835.9,508.1,RIGHT,NONE,0,111,1,603,north_west,0,south_east,0,0,0,0,296,251,1,north_west,0,0,111
SRC01TR,1.52,75.9,FALSE,UP,20,75.28,1195,628.6,295.8,2,105.48,1176,609.8,367.3,RIGHT,NONE,0,111,1,603,north_west,0,south_east,0,0,0,0,296,251,1,north_west,0,0,111
SRC01TR,5.39,117.24,FALSE,RIGHT,46,-44.01,901,1008.5,734.2,1,214.36,856,819.4,550.6,RIGHT,NONE,0,112,1,450,north_west,0,south_east,0,0,0,0,311,267,1,south_east,0,0,112
SRC01TR,1.39,55.42,FALSE,RIGHT,25,-13.53,1080,1058.2,743.1,2,117.97,1056,992.2,727.1,RIGHT,NONE,0,112,1,450,north_west,0,south_east,0,0,0,0,311,267,1,south_east,0,0,112
SRC01TR,0.5,49.89,FALSE,.,10,-173.24,1372,1018.2,748.9,3,45.8,1363,1042.5,746,RIGHT,NONE,0,112,1,450,north_west,0,south_east,0,0,0,0,311,267,1,south_east,0,0,112
SRC01TR,6,136.35,FALSE,LEFT,44,-137.24,1175,642.2,697.1,1,251.67,1132,856.7,497.9,RIGHT,NONE,0,113,1,724,north_west,0,south_east,0,0,0,0,318,274,1,south_west,0,0,113
SRC01TR,0.25,12.92,FALSE,.,19,10.97,1409,636.7,694,2,43.11,1391,624.9,696.3,RIGHT,NONE,0,113,1,724,north_west,0,south_east,0,0,0,0,318,274,1,south_west,0,0,113
SRC01TR,4.23,96.13,FALSE,UP,44,45.85,1138,989.9,339,1,138.54,1095,847,486.5,RIGHT,NONE,0,114,1,727,north_west,0,south_east,0,0,0,0,290,247,1,north_east,0,0,114
SRC01TR,2.24,97.44,FALSE,RIGHT,23,37.67,1269,1059.9,281.6,2,153.47,1247,973.6,348.3,RIGHT,NONE,0,114,1,727,north_west,0,south_east,0,0,0,0,290,247,1,north_east,0,0,114
SRC01TR,0.99,44.84,FALSE,RIGHT,22,10.06,1550,1090.9,280.9,3,84.88,1529,1043.5,289.3,RIGHT,NONE,0,114,1,727,north_west,0,south_east,0,0,0,0,290,247,1,north_east,0,0,114
SRC01TR,6.7,136.79,FALSE,RIGHT,49,45,872,1063.5,314.9,1,221.16,824,832.9,545.7,RIGHT,NONE,0,115,1,476,north_west,0,south_east,0,0,0,0,275,227,1,north_east,0,0,115
SRC01TR,1.05,45.45,FALSE,RIGHT,23,8.92,1127,1096.1,308.8,2,91.48,1105,1045.7,316.7,RIGHT,NONE,0,115,1,476,north_west,0,south_east,0,0,0,0,275,227,1,north_east,0,0,115
SRC01TR,0.85,56.69,FALSE,LEFT,15,175.02,1316,1043.1,303.7,3,63.48,1302,1084.4,307.3,RIGHT,NONE,0,115,1,476,north_west,0,south_east,0,0,0,0,275,227,1,north_east,0,0,115
SRC01TR,5.09,113.04,FALSE,RIGHT,45,42.56,782,1024.1,366.2,1,157.6,738,842.2,533.4,RIGHT,NONE,0,116,1,317,north_west,0,south_east,0,0,0,0,331,287,1,north_east,0,0,116
SRC01TR,1.84,80.08,FALSE,RIGHT,23,37.46,922,1076.8,317.1,2,130.63,900,1005.6,371.6,RIGHT,NONE,0,116,1,317,north_west,0,south_east,0,0,0,0,331,287,1,north_east,0,0,116
SRC01TR,1.21,63.68,FALSE,RIGHT,19,2.14,1161,1108.5,328.1,3,88.82,1143,1049.5,330.3,RIGHT,NONE,0,116,1,317,north_west,0,south_east,0,0,0,0,331,287,1,north_east,0,0,116
SRC01TR,0.37,46.02,FALSE,.,8,155.92,93,835.7,513.2,1,39.04,86,852,520.5,RIGHT,NONE,0,117,1,486,north_west,0,south_east,0,0,0,0,317,269,1,south_west,0,0,117
SRC01TR,5.4,110.28,FALSE,LEFT,49,-136.95,935,653.5,696.6,2,232,887,845.8,516.2,RIGHT,NONE,0,117,1,486,north_west,0,south_east,0,0,0,0,317,269,1,south_west,0,0,117
SRC01TR,0.67,55.9,FALSE,RIGHT,12,-5.21,1309,674.1,715.2,3,55.53,1298,641.4,712.2,RIGHT,NONE,0,117,1,486,north_west,0,south_east,0,0,0,0,317,269,1,south_west,0,0,117
SRC01TR,5.54,128.85,FALSE,UP,43,134.46,759,650.9,325.3,1,175.04,717,839.5,517.7,RIGHT,NONE,0,118,1,357,north_west,0,south_east,0,0,0,0,268,226,1,north_west,0,0,118
SRC01TR,0.41,37.44,FALSE,.,11,82.84,997,650,318.5,2,35.36,987,647.5,338.4,RIGHT,NONE,0,118,1,357,north_west,0,south_east,0,0,0,0,268,226,1,north_west,0,0,118
SRC01TR,0.45,49.8,FALSE,.,9,168.37,1268,613.1,325,3,44.19,1260,634.5,329.4,RIGHT,NONE,0,118,1,357,north_west,0,south_east,0,0,0,0,268,226,1,north_west,0,0,118
SRC01TR,0.74,43.62,FALSE,RIGHT,17,28.51,536,879.2,490.5,1,58.87,520,847.6,507.7,RIGHT,NONE,0,119,2,353,north_west,0,south_east,0,0,0,0,448,422,0,south_west,1,0,119
SRC01TR,2.99,93.49,FALSE,LEFT,32,-144.07,792,746.9,566.9,2,151.59,761,864.4,481.5,RIGHT,NONE,0,119,2,353,north_west,0,south_east,0,0,0,0,448,422,0,south_west,1,0,119
SRC01TR,3.42,126.64,FALSE,LEFT,27,-135.6,932,633.1,683,3,208,906,752.2,565.9,RIGHT,NONE,0,119,2,353,north_west,0,south_east,0,0,0,0,448,422,0,south_west,1,0,119
SRC01TR,0.22,44.41,FALSE,.,5,167.15,419,817.8,519.7,1,29.36,415,828.3,522.1,RIGHT,NONE,1,0,1,488,north_west,0,south_east,0,10,0,0,276,232,1,north_west,0,10,120
SRC01TR,5.86,130.17,FALSE,UP,45,130.19,896,642.9,309.7,2,226.81,852,826.6,527.4,RIGHT,NONE,1,0,1,488,north_west,0,south_east,0,10,0,0,276,232,1,north_west,0,10,120
SRC01TR,0.43,30.53,FALSE,.,14,119.03,1293,622.3,319,3,35.46,1280,632.4,337.2,RIGHT,NONE,1,0,1,488,north_west,0,south_east,0,10,0,0,276,232,1,north_west,0,10,120
SRC01TR,5.94,134.92,FALSE,UP,44,132.04,810,661.3,303.2,1,224.92,767,854.5,517.7,RIGHT,NONE,1,1,1,407,north_west,0,south_east,0,10,0,0,267,225,1,north_west,0,20,121
SRC01TR,6.4,133.43,FALSE,RIGHT,48,44.12,1156,1071.5,314.2,1,229.01,1109,847.8,531.1,RIGHT,NONE,1,2,1,699,north_west,0,south_east,0,0,0,0,323,276,1,north_east,0,20,122
SRC01TR,0.77,34.89,FALSE,RIGHT,22,34.33,1476,1085,318.8,2,82.23,1455,1054.1,339.9,RIGHT,NONE,1,2,1,699,north_west,0,south_east,0,0,0,0,323,276,1,north_east,0,20,122
SRC01TR,4.69,111.67,FALSE,LEFT,42,143.15,1061,651.1,360.5,1,172.57,1020,833.5,497.2,RIGHT,NONE,1,3,2,690,north_west,0,south_east,0,-1,0,0,371,309,0,south_east,1,19,123
SRC01TR,10.38,164.74,FALSE,RIGHT,63,-34.64,1193,1049,656.2,2,431.09,1131,632.3,367.7,RIGHT,NONE,1,3,2,690,north_west,0,south_east,0,-1,0,0,371,309,0,south_east,1,19,123
SRC01TR,0.49,49.22,FALSE,.,10,-76.82,1694,1057.3,717.9,3,46.63,1685,1051.8,694.3,RIGHT,NONE,1,3,2,690,north_west,0,south_east,0,-1,0,0,371,309,0,south_east,1,19,123
SRC01TR,5.85,129.92,FALSE,UP,45,129.33,985,655.8,316.5,1,218.56,941,835.9,536.5,RIGHT,NONE,1,4,1,575,north_west,0,south_east,0,10,0,0,276,232,1,north_west,0,29,124
SRC01TR,0.42,26.35,FALSE,.,16,167.91,1363,604.7,339.5,2,46.31,1348,624.8,343.8,RIGHT,NONE,1,4,1,575,north_west,0,south_east,0,10,0,0,276,232,1,north_west,0,29,124
SRC01TR,5.71,150.33,FALSE,LEFT,38,-135.7,907,659.9,720.7,1,251.41,870,859,525.4,RIGHT,NONE,1,5,1,474,north_west,0,south_east,0,0,0,0,300,263,1,south_west,0,29,125
SRC01TR,0.87,54.34,FALSE,LEFT,16,-156.66,1236,592.4,737.8,2,65.12,1221,631.6,720.8,RIGHT,NONE,1,5,1,474,north_west,0,south_east,0,0,0,0,300,263,1,south_west,0,29,125
SRC01TR,6.83,145.27,FALSE,RIGHT,47,40.35,1155,1093.9,300,1,249.69,1109,840.5,515.3,RIGHT,NONE,1,6,1,722,north_west,0,south_east,0,0,0,0,298,252,1,north_east,0,29,126
SRC01TR,0.55,41.97,FALSE,RIGHT,13,-3.89,416,869.8,529.3,1,44.67,404,843.4,527.5,RIGHT,NONE,1,7,1,593,north_west,0,south_east,0,0,0,0,290,246,1,north_east,0,29,127
SRC01TR,6.54,145.36,FALSE,RIGHT,45,39.66,1016,1087.7,334.5,2,251.68,972,842.7,537.6,RIGHT,NONE,1,7,1,593,north_west,0,south_east,0,0,0,0,290,246,1,north_east,0,29,127
SRC01TR,5.19,112.82,FALSE,UP,46,131.39,739,674.9,322.3,1,171.8,694,841.5,511.7,RIGHT,NONE,1,8,1,280,north_west,0,south_east,0,10,0,0,327,282,1,north_west,0,39,128
SRC01TR,0.73,60.61,FALSE,LEFT,12,159.31,944,633.4,333.5,2,57.36,933,666.5,346,RIGHT,NONE,1,8,1,280,north_west,0,south_east,0,10,0,0,327,282,1,north_west,0,39,128
SRC01TR,5.79,131.57,FALSE,UP,44,130.46,1120,654.1,252.3,1,205.27,1077,836.5,466.8,RIGHT,NONE,1,9,1,709,north_west,0,south_east,0,10,0,0,276,233,1,north_west,0,49,129
SRC01TR,5.99,136.11,FALSE,LEFT,44,135.64,837,640.3,302,1,214.72,794,848.4,505.7,RIGHT,NONE,1,10,1,427,north_west,0,south_east,0,1,0,0,276,233,1,north_west,0,50,130
SRC01TR,6.14,133.41,FALSE,RIGHT,46,38.19,880,1053.7,320.6,1,236.54,835,819.3,505.2,RIGHT,NONE,1,11,1,436,north_west,0,south_east,0,0,0,0,311,266,1,north_east,0,50,131
SRC01TR,0.85,60.95,FALSE,UP,14,66.48,1088,1060.7,306.3,2,67.34,1075,1044.1,344.4,RIGHT,NONE,1,11,1,436,north_west,0,south_east,0,0,0,0,311,266,1,north_east,0,50,131
SRC01TR,0.29,48.25,FALSE,.,6,17.37,406,837.7,527,1,32.2,401,824.3,531.2,RIGHT,NONE,1,12,1,406,north_west,0,south_east,0,1,0,0,294,257,1,south_east,0,51,132
SRC01TR,5.93,156.08,FALSE,RIGHT,38,-35.16,836,1061,695.8,2,320.51,799,824.6,528.8,RIGHT,NONE,1,12,1,406,north_west,0,south_east,0,1,0,0,294,257,1,south_east,0,51,132
SRC01TR,0.61,50.48,FALSE,DOWN,12,-92.7,1027,1049.4,710.8,3,52.65,1016,1050.8,681,RIGHT,NONE,1,12,1,406,north_west,0,south_east,0,1,0,0,294,257,1,south_east,0,51,132
SRC01TR,6.47,137.72,FALSE,UP,47,47.34,1132,1051.6,282.7,1,267.21,1086,838.2,514.5,RIGHT,NONE,1,13,1,717,north_west,0,south_east,0,0,0,0,282,236,1,north_east,0,51,133
SRC01TR,0.98,44.49,FALSE,RIGHT,22,-1.68,1624,1078.5,293.2,2,85.82,1603,1030.8,291.8,RIGHT,NONE,1,13,1,717,north_west,0,south_east,0,0,0,0,282,236,1,north_east,0,51,133
SRC01TR,0.22,37.08,FALSE,.,6,172.56,630,814.9,500,1,29.84,625,825.6,501.4,RIGHT,NONE,1,14,1,636,north_west,0,south_east,0,0,0,0,275,229,1,north_east,0,51,134
SRC01TR,7.48,159.05,FALSE,RIGHT,47,41.35,1044,1083.1,256,2,299.66,998,809.8,496.5,RIGHT,NONE,1,14,1,636,north_west,0,south_east,0,0,0,0,275,229,1,north_east,0,51,134
SRC01TR,6.31,140.28,FALSE,UP,45,131.75,719,635.6,292.7,1,230.5,675,839.9,521.8,RIGHT,NONE,1,15,1,211,north_west,0,south_east,0,10,0,0,373,329,1,north_west,0,61,135
SRC01TR,0.42,21.87,FALSE,.,19,14.6,1171,637.9,291.3,2,49.99,1153,618.3,296.4,RIGHT,NONE,1,15,1,211,north_west,0,south_east,0,10,0,0,373,329,1,north_west,0,61,135
SRC01TR,5.57,109.23,FALSE,RIGHT,51,-39.18,1141,1044.2,682.6,1,277.26,1091,833.9,510.5,RIGHT,NONE,1,16,1,723,north_west,0,south_east,0,1,1,0,285,235,1,south_east,0,62,136
SRC01TR,0.42,24.43,FALSE,.,17,-76.65,1406,1048.7,710.9,2,40.11,1390,1044,691,RIGHT,NONE,1,16,1,723,north_west,0,south_east,0,1,1,0,285,235,1,south_east,0,62,136
SRC01TR,0.81,22.54,FALSE,RIGHT,36,-9.92,1691,1079.2,722.7,3,84.95,1656,1040,715.8,RIGHT,NONE,1,16,1,723,north_west,0,south_east,0,1,1,0,285,235,1,south_east,0,62,136
SRC01TR,6.47,170.33,FALSE,DOWN,38,-131.14,1131,650.6,762.9,1,287.27,1094,858.4,523.8,RIGHT,NONE,1,17,1,701,north_west,0,south_east,0,0,0,0,297,259,1,south_west,0,62,137
SRC01TR,0.3,42.77,FALSE,.,7,56.1,1426,649,760.3,2,33.56,1420,640.8,772.6,RIGHT,NONE,1,17,1,701,north_west,0,south_east,0,0,0,0,297,259,1,south_west,0,62,137
SRC01TR,5.77,131.14,FALSE,UP,44,134.86,939,650.1,327.7,1,206.52,896,847.9,526.7,RIGHT,NONE,1,18,1,522,north_west,0,south_east,0,10,0,0,285,242,1,north_west,0,72,138
SRC01TR,0.41,37.17,FALSE,.,11,92.01,1190,630.2,316.3,2,37.52,1180,630.9,336.2,RIGHT,NONE,1,18,1,522,north_west,0,south_east,0,10,0,0,285,242,1,north_west,0,72,138
SRC01TR,6.38,118.21,FALSE,RIGHT,54,-44.03,692,1067,707.4,1,292.21,639,843.5,490.2,RIGHT,NONE,1,19,1,217,north_west,0,south_east,0,1,0,0,342,289,1,south_east,0,73,139
SRC01TR,0.38,31.37,FALSE,.,12,101.24,936,1062,704.9,2,31.88,925,1065.6,723.1,RIGHT,NONE,1,19,1,217,north_west,0,south_east,0,1,0,0,342,289,1,south_east,0,73,139
SRC01TR,0.49,53.92,FALSE,.,9,-0.72,1187,1090.2,711.7,3,47.22,1179,1066.4,711.4,RIGHT,NONE,1,19,1,217,north_west,0,south_east,0,1,0,0,342,289,1,south_east,0,73,139
SRC01TR,4.72,127.56,FALSE,RIGHT,37,-2.97,721,1067.5,530.7,1,265.36,685,838.2,518.8,RIGHT,NONE,1,20,2,312,north_west,0,south_east,0,-1,0,0,363,328,0,north_east,1,72,140
SRC01TR,3.96,109.94,FALSE,UP,36,86.13,796,1048.5,331.6,2,210.96,761,1035.5,523.9,RIGHT,NONE,1,20,2,312,north_west,0,south_east,0,-1,0,0,363,328,0,north_east,1,72,140
SRC01TR,1.47,56.55,FALSE,UP,26,90.24,892,1041.1,282.8,3,125.98,867,1041.4,354.4,RIGHT,NONE,1,20,2,312,north_west,0,south_east,0,-1,0,0,363,328,0,north_east,1,72,140
SRC01TR,6.32,143.56,FALSE,UP,44,47.07,934,1042.8,288.2,1,224.16,891,833.7,513.2,RIGHT,NONE,1,21,2,557,north_west,0,south_east,0,-1,0,0,385,334,0,north_west,1,71,141
SRC01TR,7.84,150.81,FALSE,LEFT,52,-177.33,1076,636.3,316.2,2,324.72,1025,1017.8,298.4,RIGHT,NONE,1,21,2,557,north_west,0,south_east,0,-1,0,0,385,334,0,north_west,1,71,141
SRC01TR,5.7,132.52,FALSE,UP,43,133.95,670,648.4,302.1,1,210.88,628,840.6,501.7,RIGHT,NONE,1,22,1,265,north_west,0,south_east,0,1,0,0,271,228,1,north_west,0,72,142
SRC01TR,5.97,119.33,FALSE,DOWN,50,-134.92,643,635.8,717.7,1,293.81,594,841.2,510.9,RIGHT,NONE,1,23,1,215,north_west,0,south_east,0,0,0,0,296,247,1,south_west,0,72,143
SRC01TR,0.42,52.52,FALSE,.,8,167.56,143,817.2,520,1,40.87,136,837.1,524.4,RIGHT,NONE,1,24,1,728,north_west,0,south_east,0,10,0,0,282,234,1,north_west,0,82,144
SRC01TR,0.37,46.69,FALSE,.,8,15,357,844.1,516.6,2,38.78,350,826.6,521.3,RIGHT,NONE,1,24,1,728,north_west,0,south_east,0,10,0,0,282,234,1,north_west,0,82,144
SRC01TR,6.14,127.88,FALSE,UP,48,133.15,1132,634.5,272,3,230,1085,838.3,490.1,RIGHT,NONE,1,24,1,728,north_west,0,south_east,0,10,0,0,282,234,1,north_west,0,82,144
SRC01TR,0.59,49.07,FALSE,RIGHT,12,1.2,1619,647.8,280.7,4,49.56,1608,619.1,281.3,RIGHT,NONE,1,24,1,728,north_west,0,south_east,0,10,0,0,282,234,1,north_west,0,82,144
SRC01TR,0.22,36.48,FALSE,.,6,-176.77,133,826.9,536.1,1,31.91,128,837.5,535.5,RIGHT,NONE,1,25,1,513,north_west,0,south_east,0,0,0,0,293,248,1,north_east,0,82,145
SRC01TR,6.81,147.99,FALSE,RIGHT,46,41.09,941,1079,292.2,2,281.43,896,829.4,510.1,RIGHT,NONE,1,25,1,513,north_west,0,south_east,0,0,0,0,293,248,1,north_east,0,82,145
SRC01TR,0.33,40.87,FALSE,.,8,-176.04,1417,1045.6,300,3,38.98,1410,1061.5,298.9,RIGHT,NONE,1,25,1,513,north_west,0,south_east,0,0,0,0,293,248,1,north_east,0,82,145
SRC01TR,6.72,172.22,FALSE,DOWN,39,-132.73,824,618.4,761,1,285.6,786,840.8,519,RIGHT,NONE,1,26,1,384,north_west,0,south_east,0,0,0,0,306,268,1,south_west,0,82,146
SRC01TR,0.3,42.68,FALSE,.,7,128.34,1119,603.2,747.7,2,32.06,1113,612.3,759.3,RIGHT,NONE,1,26,1,384,north_west,0,south_east,0,0,0,0,306,268,1,south_west,0,82,146
SRC01TR,5.38,131.11,FALSE,LEFT,41,-136.06,1051,634.9,684.1,1,240.62,1011,823.4,501.7,RIGHT,NONE,1,27,1,644,north_west,0,south_east,0,0,0,0,285,245,1,south_west,0,82,147
SRC01TR,6,157.97,FALSE,DOWN,38,-132.6,826,635.2,750.4,1,263.82,789,833.5,533.9,RIGHT,NONE,1,28,1,428,north_west,0,south_east,0,0,0,0,265,228,1,south_west,0,82,148
SRC01TR,0.89,55.75,FALSE,LEFT,16,-172.84,1181,573.3,740.5,2,68.07,1166,616.8,735,RIGHT,NONE,1,28,1,428,north_west,0,south_east,0,0,0,0,265,228,1,south_west,0,82,148
SRC01TR,5.43,118.01,FALSE,LEFT,46,-140.88,1010,649.6,682,1,290.1,965,854.7,514.7,RIGHT,NONE,1,29,1,609,north_west,0,south_east,0,0,0,0,268,223,1,south_west,0,82,149
SRC01TR,0.33,19.31,FALSE,.,17,41.63,408,853.1,507.3,1,38.84,392,841.2,517.9,RIGHT,NONE,1,30,1,286,north_west,0,south_east,0,0,0,0,284,226,1,north_east,0,82,150
SRC01TR,6.42,108.86,FALSE,RIGHT,59,40.61,692,1086.4,300.9,2,192.18,634,849.2,504.5,RIGHT,NONE,1,30,1,286,north_west,0,south_east,0,0,0,0,284,226,1,north_east,0,82,150
SRC01TR,0.19,10.22,FALSE,.,19,31.2,1167,1064.6,323.6,3,39.3,1149,1056.5,328.5,RIGHT,NONE,1,30,1,286,north_west,0,south_east,0,0,0,0,284,226,1,north_east,0,82,150
SRC01TR,6.79,150.93,FALSE,RIGHT,45,40.09,810,1081.7,296.3,1,274.7,766,828.9,509.3,RIGHT,NONE,1,31,1,433,north_west,0,south_east,0,0,0,0,255,211,1,north_east,0,82,151
SRC01TR,0.77,51.32,FALSE,RIGHT,15,-0.61,1150,1100,310.9,2,60.22,1136,1062.4,310.5,RIGHT,NONE,1,31,1,433,north_west,0,south_east,0,0,0,0,255,211,1,north_east,0,82,151
SRC01TR,6.59,164.71,FALSE,LEFT,40,-138.34,744,607.9,725.8,1,293.72,705,848.1,511.2,RIGHT,NONE,1,32,1,323,north_west,0,south_east,0,0,1,0,289,249,1,south_west,0,82,152
SRC01TR,0.97,46.05,FALSE,RIGHT,21,29.22,955,635.5,707.6,2,78.34,935,594.1,730.9,RIGHT,NONE,1,32,1,323,north_west,0,south_east,0,0,1,0,289,249,1,south_west,0,82,152
SRC01TR,7.16,155.71,FALSE,UP,46,46.25,699,1095.2,266.2,1,247.48,654,854,518.2,RIGHT,NONE,1,33,1,248,north_west,0,south_east,0,0,0,0,319,274,1,north_east,0,82,153
SRC01TR,6.66,151.3,FALSE,RIGHT,44,40.79,770,1070.2,304.1,1,246.45,727,825,515.9,RIGHT,NONE,1,34,1,378,north_west,0,south_east,0,0,1,0,259,216,1,north_east,0,82,154
SRC01TR,0.56,29.73,FALSE,RIGHT,19,-10.26,1052,1072.1,319.9,2,58.87,1034,1045,315,RIGHT,NONE,1,34,1,378,north_west,0,south_east,0,0,1,0,259,216,1,north_east,0,82,154
SRC01TR,5.82,161.79,FALSE,LEFT,36,-136.1,773,641.8,744.9,1,268.62,738,846.4,546.8,RIGHT,NONE,1,35,1,389,north_west,0,south_east,0,0,0,0,263,227,1,south_west,0,82,155
SRC01TR,5.75,133.82,FALSE,UP,43,131.58,901,649.9,313.5,1,203.72,859,835.5,522.9,RIGHT,NONE,1,36,1,493,north_west,0,south_east,0,10,0,0,275,233,1,north_west,0,92,156
SRC01TR,0.29,41.07,FALSE,.,7,-172.61,1165,611.8,332.2,2,33.61,1159,625.7,330.4,RIGHT,NONE,1,36,1,493,north_west,0,south_east,0,10,0,0,275,233,1,north_west,0,92,156
SRC01TR,7.17,166.75,FALSE,DOWN,43,-46.14,1239,1086.9,761.4,1,299.02,1197,844.2,507.8,RIGHT,NONE,1,37,1,784,north_west,0,south_east,0,1,0,0,320,278,1,south_east,0,93,157
SRC01TR,0.26,37.67,FALSE,.,7,100.68,1420,1067,728.9,2,31.37,1414,1069.4,741.7,RIGHT,NONE,1,37,1,784,north_west,0,south_east,0,1,0,0,320,278,1,south_east,0,93,157
SRC01TR,0.17,33.78,FALSE,.,5,156.29,420,837.4,507.1,1,32.96,416,844.9,510.4,RIGHT,NONE,1,38,1,573,north_west,0,south_east,0,10,0,0,241,202,1,north_west,0,103,158
SRC01TR,5.8,145.07,FALSE,UP,40,132.6,947,644.2,307.3,2,237.19,908,835.1,515.1,RIGHT,NONE,1,38,1,573,north_west,0,south_east,0,10,0,0,241,202,1,north_west,0,103,158
SRC01TR,6.14,142.68,FALSE,UP,43,129.99,680,644.2,291.4,1,209.75,638,835.8,520.1,RIGHT,NONE,1,39,1,294,north_west,0,south_east,0,10,0,0,251,209,1,north_west,0,113,159
SRC01TR,6.09,152.15,FALSE,RIGHT,40,-42.74,635,1060.1,710.4,1,272.11,596,842.2,508.2,RIGHT,NONE,1,40,1,213,north_west,0,south_east,0,10,0,0,289,250,1,south_east,0,123,160
SRC01TR,0.62,56.68,FALSE,RIGHT,11,14.33,467,871.3,526.2,1,53.08,457,842,533.7,RIGHT,NONE,1,41,1,728,north_west,0,south_east,0,0,0,0,270,224,1,north_east,0,123,161
SRC01TR,0.79,60.88,FALSE,LEFT,13,176.13,700,833.5,511.4,2,62.69,688,871.8,514,RIGHT,NONE,1,41,1,728,north_west,0,south_east,0,0,0,0,270,224,1,north_east,0,123,161
SRC01TR,6.57,142.89,FALSE,RIGHT,46,37.64,1118,1090.1,302.6,3,274.4,1073,836.9,498.1,RIGHT,NONE,1,41,1,728,north_west,0,south_east,0,0,0,0,270,224,1,north_east,0,123,161
SRC01TR,0.24,40.23,FALSE,.,6,80.72,1366,1069.5,312.2,4,35.66,1361,1067.6,323.8,RIGHT,NONE,1,41,1,728,north_west,0,south_east,0,0,0,0,270,224,1,north_east,0,123,161
SRC01TR,6,150.05,FALSE,LEFT,40,-139.71,1019,605.7,721.5,1,277.72,980,829.1,531.5,RIGHT,NONE,1,42,1,622,north_west,0,south_east,0,0,0,0,263,224,1,south_west,0,123,162
SRC01TR,0.59,31.04,FALSE,RIGHT,19,12.92,1288,636.2,712.7,2,57.17,1270,608,719.2,RIGHT,NONE,1,42,1,622,north_west,0,south_east,0,0,0,0,263,224,1,south_west,0,123,162
SRC01TR,5.55,138.77,FALSE,UP,40,129.66,968,664,312.4,1,205.26,929,836,520.3,RIGHT,NONE,1,43,1,574,north_west,0,south_east,0,1,0,0,271,232,1,north_west,0,124,163
SRC01TR,0.39,42.97,FALSE,.,9,172.68,1184,614.1,310.4,2,37.95,1176,632.8,312.8,RIGHT,NONE,1,43,1,574,north_west,0,south_east,0,1,0,0,271,232,1,north_west,0,124,163
SRC01TR,5.81,157.13,FALSE,LEFT,37,-144.45,1149,603.2,675.3,1,251.27,1113,833.8,510,RIGHT,NONE,1,44,1,735,north_west,0,south_east,0,0,0,0,279,243,1,south_west,0,124,164
SRC01TR,1.21,60.72,FALSE,RIGHT,20,-10.23,1402,654.9,685.3,2,90.86,1383,596.4,674.7,RIGHT,NONE,1,44,1,735,north_west,0,south_east,0,0,0,0,279,243,1,south_west,0,124,164
SRC01TR,6.83,170.77,FALSE,RIGHT,40,-42.01,769,1072.9,735.3,1,323.65,730,825.2,511.3,RIGHT,NONE,1,45,1,352,north_west,0,south_east,0,1,0,0,284,244,1,south_east,0,125,165
SRC01TR,5.84,129.72,FALSE,UP,45,132.07,859,636.7,327.3,1,220.08,815,826.8,538.1,RIGHT,NONE,1,46,1,450,north_west,0,south_east,0,10,0,0,274,230,1,north_west,0,135,166
SRC01TR,7.22,171.81,FALSE,RIGHT,42,-44.57,665,1079.5,752.7,1,301.38,624,828.4,504.3,RIGHT,NONE,1,47,1,211,north_west,0,south_east,0,1,0,0,322,280,1,south_east,0,136,167
SRC01TR,0.28,40.44,FALSE,.,7,133.17,874,1044.2,733.2,2,29.95,868,1053.7,743.4,RIGHT,NONE,1,47,1,211,north_west,0,south_east,0,1,0,0,322,280,1,south_east,0,136,167
SRC01TR,0.62,56.36,FALSE,RIGHT,11,11.49,1153,1070.7,729,3,52.54,1143,1040.9,735.1,RIGHT,NONE,1,47,1,211,north_west,0,south_east,0,1,0,0,322,280,1,south_east,0,136,167
SRC01TR,6.73,131.94,FALSE,RIGHT,51,-41.88,752,1072.6,740.7,1,314.14,702,828.1,520.6,RIGHT,NONE,1,48,1,334,north_west,0,south_east,0,1,0,0,283,233,1,south_east,0,137,168
SRC01TR,0.29,36.34,FALSE,.,8,149.52,969,1049.4,754.8,2,30.21,962,1061.7,762.1,RIGHT,NONE,1,48,1,334,north_west,0,south_east,0,1,0,0,283,233,1,south_east,0,137,168
SRC01TR,0.55,54.56,FALSE,RIGHT,10,13.94,1187,1066.6,749.4,3,49.39,1178,1040.6,755.9,RIGHT,NONE,1,48,1,334,north_west,0,south_east,0,1,0,0,283,233,1,south_east,0,137,168
SRC01TR,6.22,148.17,FALSE,RIGHT,42,-41.29,654,1067.1,726.5,1,269.23,613,838.9,525.3,RIGHT,NONE,1,49,1,207,north_west,0,south_east,0,10,0,0,319,278,1,south_east,0,147,169
SRC01TR,0.39,48.26,FALSE,.,8,-14.92,898,1072.3,718.8,2,39.84,891,1054,713.9,RIGHT,NONE,1,49,1,207,north_west,0,south_east,0,10,0,0,319,278,1,south_east,0,147,169
SRC01TR,5.76,137.08,FALSE,UP,42,130.84,1041,669.9,307.3,1,219.1,1000,852.7,519.2,RIGHT,NONE,1,50,1,633,north_west,0,south_east,0,10,0,0,273,231,1,north_west,0,157,170
SRC01TR,6.41,152.73,FALSE,RIGHT,42,-40.11,700,1070.7,719.8,1,292.9,659,831.3,517.5,RIGHT,NONE,1,51,1,274,north_west,0,south_east,0,1,0,0,292,250,1,south_east,0,158,171
SRC01TR,0.37,20.4,FALSE,.,18,-149.46,973,1032.4,726.9,2,48.03,956,1047.9,717.7,RIGHT,NONE,1,51,1,274,north_west,0,south_east,0,1,0,0,292,250,1,south_east,0,158,171
SRC01TR,0.6,54.31,FALSE,RIGHT,11,0.78,1121,1065.2,726.9,3,52.42,1111,1035.9,727.3,RIGHT,NONE,1,51,1,274,north_west,0,south_east,0,1,0,0,292,250,1,south_east,0,158,171
SRC01TR,6,136.39,FALSE,RIGHT,44,38.74,801,1052.2,343.3,1,248.81,758,824.7,526,RIGHT,NONE,1,52,1,404,north_west,0,south_east,0,0,0,0,262,219,1,north_east,0,158,172
SRC01TR,0.98,65.3,FALSE,RIGHT,15,21.26,1083,1073.1,336.6,2,72.76,1069,1028.6,353.9,RIGHT,NONE,1,52,1,404,north_west,0,south_east,0,0,0,0,262,219,1,north_east,0,158,172
SRC01TR,6.14,139.57,FALSE,DOWN,44,-45.27,875,1065.8,740.5,1,267.64,832,854.9,526.7,RIGHT,NONE,1,53,1,474,north_west,0,south_east,0,1,0,0,267,224,1,south_east,0,159,173
SRC01TR,0.61,55.61,FALSE,RIGHT,11,-6.65,1122,1076.5,739.3,2,51.25,1112,1046.7,735.8,RIGHT,NONE,1,53,1,474,north_west,0,south_east,0,1,0,0,267,224,1,south_east,0,159,173
SRC01TR,5.99,133.01,FALSE,UP,45,132.12,907,631.6,301.6,1,210.23,863,826.7,517.6,RIGHT,NONE,1,54,1,505,north_west,0,south_east,0,10,0,0,268,224,1,north_west,0,169,174
SRC01TR,5.91,140.82,FALSE,LEFT,42,-136.58,710,633.4,693.5,1,248.92,669,842.8,494.7,RIGHT,NONE,1,55,1,276,north_west,0,south_east,0,0,0,0,302,261,1,south_west,0,169,175
SRC01TR,6.13,133.24,FALSE,UP,46,133.38,917,627.6,303.6,1,218.65,872,832.2,520.3,RIGHT,NONE,1,56,1,511,north_west,0,south_east,0,10,0,0,274,229,1,north_west,0,179,176
SRC01TR,6.78,147.44,FALSE,UP,46,45.9,733,1067.1,285,1,266.46,688,837.5,522.2,RIGHT,NONE,1,57,1,319,north_west,0,south_east,0,0,0,0,280,235,1,north_east,0,179,177
SRC01TR,0.85,53.05,FALSE,RIGHT,16,8.76,1114,1082.9,297.5,2,65.06,1099,1042,303.8,RIGHT,NONE,1,57,1,319,north_west,0,south_east,0,0,0,0,280,235,1,north_east,0,179,177
SRC01TR,0.27,44.4,FALSE,.,6,140.71,394,845,517.4,1,28.97,389,855,525.6,RIGHT,NONE,1,58,1,588,north_west,0,south_east,0,0,0,0,279,230,1,south_west,0,179,178
SRC01TR,6.36,127.13,FALSE,LEFT,50,-137.15,988,635.2,708.9,2,285.63,939,862.4,497.3,RIGHT,NONE,1,58,1,588,north_west,0,south_east,0,0,0,0,279,230,1,south_west,0,179,178
SRC01TR,0.82,45.81,FALSE,RIGHT,18,34.16,1208,662.2,702.1,3,66.95,1191,628.8,724.9,RIGHT,NONE,1,58,1,588,north_west,0,south_east,0,0,0,0,279,230,1,south_west,0,179,178
SRC01TR,6.53,159.29,FALSE,RIGHT,41,-42.63,643,1060.6,720.9,1,307.19,603,826.1,504.4,RIGHT,NONE,1,59,1,233,north_west,0,south_east,0,10,0,0,289,249,1,south_east,0,189,179
SRC01TR,0.75,37.34,FALSE,RIGHT,20,-2.18,1067,1084.4,716.2,2,72.2,1048,1047.8,714.8,RIGHT,NONE,1,59,1,233,north_west,0,south_east,0,10,0,0,289,249,1,south_east,0,189,179
SRC01TR,6.01,143.2,FALSE,UP,42,132.19,814,623.6,317.6,1,202.95,773,819.9,534.4,RIGHT,NONE,1,60,1,433,north_west,0,south_east,0,10,0,0,260,219,1,north_west,0,199,180
SRC01TR,0.2,39.3,FALSE,.,5,172.19,1190,600.9,327.5,2,32.7,1186,610.4,328.8,RIGHT,NONE,1,60,1,433,north_west,0,south_east,0,10,0,0,260,219,1,north_west,0,199,180
SRC01TR,7,170.64,FALSE,LEFT,41,-136.09,666,598.6,755.6,1,305.95,626,844.8,517.6,RIGHT,NONE,1,61,1,253,north_west,0,south_east,0,0,0,0,281,240,1,south_west,0,199,181
SRC01TR,1.17,50.71,FALSE,RIGHT,23,25.71,950,638.3,728.8,2,100.39,928,586.7,753.8,RIGHT,NONE,1,61,1,253,north_west,0,south_east,0,0,0,0,281,240,1,south_west,0,199,181
SRC01TR,6.92,153.74,FALSE,RIGHT,45,41.13,942,1089,290.3,1,282.17,898,835.2,511.9,RIGHT,NONE,1,62,1,545,north_west,0,south_east,0,0,0,0,263,219,1,north_east,0,199,182
SRC01TR,0.96,60.04,FALSE,LEFT,16,-177.67,1341,1007.4,304.7,2,70.29,1326,1054.1,302.8,RIGHT,NONE,1,62,1,545,north_west,0,south_east,0,0,0,0,263,219,1,north_east,0,199,182
SRC01TR,6.64,141.28,FALSE,RIGHT,47,40.99,699,1102.4,307.2,1,268.79,653,858.3,519.3,RIGHT,NONE,1,63,1,276,north_west,0,south_east,0,0,0,0,288,242,1,north_east,0,199,183
SRC01TR,1.02,56.93,FALSE,RIGHT,18,9.66,1021,1132.6,303.9,2,76.25,1004,1083.2,312.3,RIGHT,NONE,1,63,1,276,north_west,0,south_east,0,0,0,0,288,242,1,north_east,0,199,183
SRC01TR,0.88,58.76,FALSE,LEFT,15,163.11,1170,1069.2,289,3,65.33,1156,1110.4,301.5,RIGHT,NONE,1,63,1,276,north_west,0,south_east,0,0,0,0,288,242,1,north_east,0,199,183
SRC01TR,6.16,134,FALSE,UP,46,132.95,652,621.6,309.8,1,216.07,607,825.7,529.3,RIGHT,NONE,1,64,1,256,north_west,0,south_east,0,10,0,0,261,216,1,north_west,0,209,184
SRC01TR,0.45,55.85,FALSE,.,8,-168.04,175,834.4,523.7,1,43.9,168,855.6,519.2,RIGHT,NONE,1,65,2,270,north_west,0,south_east,0,-1,0,0,417,392,0,south_west,1,208,185
SRC01TR,4.23,114.26,FALSE,LEFT,37,-155.4,657,642,611.6,2,199.26,621,829,525.8,RIGHT,NONE,1,65,2,270,north_west,0,south_east,0,-1,0,0,417,392,0,south_west,1,208,185
SRC01TR,2.51,96.35,FALSE,DOWN,26,-96.65,809,619,730.3,3,171.95,784,633.2,608,RIGHT,NONE,1,65,2,270,north_west,0,south_east,0,-1,0,0,417,392,0,south_west,1,208,185
SRC01TR,1.28,71.32,FALSE,UP,18,122.37,325,809,477.2,1,79.37,308,842.3,529.9,RIGHT,NONE,1,66,1,722,north_west,0,south_east,1,-1,0,0,227,172,0,south_west,1,207,186
SRC01TR,5.39,122.46,FALSE,RIGHT,44,29.86,536,1029.9,352.7,2,216.81,493,802.8,483.2,RIGHT,NONE,1,66,1,722,north_west,0,south_east,1,-1,0,0,227,172,0,south_west,1,207,186
SRC01TR,4.81,133.64,FALSE,LEFT,36,175.66,737,769.5,362.3,3,222.05,702,1002.4,380,RIGHT,NONE,1,66,1,722,north_west,0,south_east,1,-1,0,0,227,172,0,south_west,1,207,186
SRC01TR,7.43,132.68,FALSE,DOWN,56,-104.29,1082,677.4,717.7,4,322.57,1027,766.7,365.6,RIGHT,NONE,1,66,1,722,north_west,0,south_east,1,-1,0,0,227,172,0,south_west,1,207,186
SRC01TR,0.86,40.81,FALSE,LEFT,21,-177.29,1494,627.4,730.4,5,80.46,1474,669.3,728.4,RIGHT,NONE,1,66,1,722,north_west,0,south_east,1,-1,0,0,227,172,0,south_west,1,207,186
SRC01TR,6.09,119.49,FALSE,RIGHT,51,-42.54,925,1038.2,752.1,1,328.37,875,819.1,550,RIGHT,NONE,1,67,1,524,north_west,0,south_east,0,1,0,0,279,229,1,south_east,0,208,187
SRC01TR,0.32,45.2,FALSE,.,7,155.82,401,834.5,510.5,1,37.27,395,848.5,516.8,RIGHT,NONE,1,68,1,356,north_west,0,south_east,0,0,0,0,280,237,1,south_west,0,208,188
SRC01TR,5.71,129.83,FALSE,LEFT,44,-141.26,771,609.7,700.1,2,287.77,728,826.9,525.1,RIGHT,NONE,1,68,1,356,north_west,0,south_east,0,0,0,0,280,237,1,south_west,0,208,188
SRC01TR,0.6,46.36,FALSE,RIGHT,13,-20.45,1075,630.7,735.4,3,48.65,1063,603,725,RIGHT,NONE,1,68,1,356,north_west,0,south_east,0,0,0,0,280,237,1,south_west,0,208,188
SRC01TR,6.06,128.92,FALSE,LEFT,47,-140.39,640,614.1,734.6,1,279.36,594,841.9,545.1,RIGHT,NONE,1,69,1,212,north_west,0,south_east,0,0,0,0,297,251,1,south_west,0,208,189
SRC01TR,1.18,58.87,FALSE,RIGHT,20,1.18,906,651.9,751.3,2,86.91,887,594.1,752.5,RIGHT,NONE,1,69,1,212,north_west,0,south_east,0,0,0,0,297,251,1,south_west,0,208,189
SRC01TR,0.77,38.66,FALSE,LEFT,20,175.81,1179,588.7,752.6,3,67.28,1160,626.6,755.4,RIGHT,NONE,1,69,1,212,north_west,0,south_east,0,0,0,0,297,251,1,south_west,0,208,189
SRC01TR,5.64,141.06,FALSE,LEFT,40,136.83,750,640.7,321.1,1,213.99,711,840.7,508.9,RIGHT,NONE,1,70,1,368,north_west,0,south_east,0,10,0,0,248,209,1,north_west,0,218,190
SRC01TR,6,127.73,FALSE,UP,47,131.15,1050,661.9,279.1,1,214.45,1004,853.9,499,RIGHT,NONE,1,71,1,651,north_west,0,south_east,0,1,0,0,266,220,1,north_west,0,219,191
SRC01TR,0.33,41.68,FALSE,.,8,176.12,1298,631.4,274.2,2,36.53,1291,647.6,275.3,RIGHT,NONE,1,71,1,651,north_west,0,south_east,0,1,0,0,266,220,1,north_west,0,219,191
SRC01TR,0.78,60.03,FALSE,RIGHT,13,3.32,1547,681,277.1,3,62.73,1535,643.1,279.3,RIGHT,NONE,1,71,1,651,north_west,0,south_east,0,1,0,0,266,220,1,north_west,0,219,191
SRC01TR,6.25,168.83,FALSE,LEFT,37,-137.85,795,600.2,709.7,1,313.23,759,826.2,504.5,RIGHT,NONE,1,72,1,386,north_west,0,south_east,0,0,0,0,277,241,1,south_west,0,219,192
SRC01TR,5.49,144.54,FALSE,LEFT,38,-139.33,643,620.9,705.8,1,237.68,606,824,530.6,RIGHT,NONE,1,73,1,270,north_west,0,south_east,0,0,0,0,238,202,1,south_west,0,219,193
SRC01TR,1.04,45,FALSE,LEFT,23,-151.12,893,567,732,2,92.07,871,611.5,707.3,RIGHT,NONE,1,73,1,270,north_west,0,south_east,0,0,0,0,238,202,1,south_west,0,219,193
SRC01TR,0.96,56.5,FALSE,RIGHT,17,0.84,1094,615.5,732,3,74.62,1078,568.3,732.7,RIGHT,NONE,1,73,1,270,north_west,0,south_east,0,0,0,0,238,202,1,south_west,0,219,193
SRC01TR,6.86,163.43,FALSE,RIGHT,42,-44.61,1198,1075.8,769,1,298.95,1157,837.1,532.3,RIGHT,NONE,1,74,1,770,north_west,0,south_east,0,1,0,0,294,253,1,south_east,0,220,194
SRC01TR,0.46,38.38,FALSE,.,12,69.28,1444,1056.6,735.3,2,41.56,1433,1048.6,756.6,RIGHT,NONE,1,74,1,770,north_west,0,south_east,0,1,0,0,294,253,1,south_east,0,220,194
SRC01TR,4.12,102.92,FALSE,UP,40,126.66,637,732.2,370.4,1,145.03,598,851.4,530.9,RIGHT,NONE,1,75,2,204,north_west,0,south_east,0,-1,0,0,394,368,0,north_west,1,219,195
SRC01TR,2.72,100.86,FALSE,UP,27,128.56,718,633.6,268.1,2,171.43,692,716.1,371.8,RIGHT,NONE,1,75,2,204,north_west,0,south_east,0,-1,0,0,394,368,0,north_west,1,219,195
SRC01TR,5.13,119.33,FALSE,UP,43,129.36,685,694.2,334.3,1,208.26,643,852.2,527.1,RIGHT,NONE,1,76,2,329,north_west,0,south_east,0,-1,0,0,375,320,0,north_east,1,218,196
SRC01TR,9.11,162.64,FALSE,RIGHT,56,1.78,837,1117.8,337.1,2,417.53,782,674,350.9,RIGHT,NONE,1,76,2,329,north_west,0,south_east,0,-1,0,0,375,320,0,north_east,1,218,196
SRC01TR,1.25,66.03,FALSE,LEFT,19,145.74,990,1051.4,331.4,3,92.06,972,1102,365.8,RIGHT,NONE,1,76,2,329,north_west,0,south_east,0,-1,0,0,375,320,0,north_east,1,218,196
SRC01TR,6.41,130.85,FALSE,RIGHT,49,42.79,991,1068,304.9,1,254.1,943,839.1,516.8,RIGHT,NONE,1,77,1,568,north_west,0,south_east,0,0,0,0,291,242,1,north_east,0,218,197
SRC01TR,0.3,42.9,FALSE,.,7,8.65,407,855.5,539.8,1,33.81,401,841.1,542,RIGHT,NONE,1,78,1,514,north_west,0,south_east,0,0,0,0,257,211,1,north_east,0,218,198
SRC01TR,6.4,136.2,FALSE,RIGHT,47,42.45,906,1068.8,325.9,2,262.99,860,839,536.1,RIGHT,NONE,1,78,1,514,north_west,0,south_east,0,0,0,0,257,211,1,north_east,0,218,198
SRC01TR,6.67,130.73,FALSE,RIGHT,51,-43.69,722,1070.4,755.6,1,362.21,672,834.9,529.7,RIGHT,NONE,1,79,1,239,north_west,0,south_east,0,1,0,0,348,298,1,south_east,0,219,199
SRC01TR,0.62,44.25,FALSE,UP,14,105.62,958,1060,732.8,2,47.58,945,1068.2,762.3,RIGHT,NONE,1,79,1,239,north_west,0,south_east,0,1,0,0,348,298,1,south_east,0,219,199
SRC01TR,0.27,44.37,FALSE,.,6,7.55,385,842.5,530,1,34.63,380,829.7,531.7,RIGHT,NONE,1,80,1,531,north_west,0,south_east,0,0,0,0,271,226,1,north_east,0,219,200
SRC01TR,6.47,143.81,FALSE,RIGHT,45,44.35,935,1055.7,305.1,2,261.91,891,830.8,525.2,RIGHT,NONE,1,80,1,531,north_west,0,south_east,0,0,0,0,271,226,1,north_east,0,219,200
SRC01TR,0.99,58.52,FALSE,RIGHT,17,0.59,1336,1078.6,328.8,3,73.06,1320,1030.1,329.3,RIGHT,NONE,1,80,1,531,north_west,0,south_east,0,0,0,0,271,226,1,north_east,0,219,200
SRC01TR,6.17,158.33,FALSE,LEFT,39,-136.23,1139,618.6,728.8,1,283.76,1101,836.2,519.5,RIGHT,NONE,1,81,1,741,north_west,0,south_east,0,0,0,0,278,240,1,south_west,0,219,201
SRC01TR,7.04,156.53,FALSE,RIGHT,45,44.49,869,1089.9,273.5,1,279.24,825,845.2,513.9,RIGHT,NONE,1,82,1,472,north_west,0,south_east,0,0,0,0,262,217,1,north_east,0,219,202
SRC01TR,0.82,54.9,FALSE,RIGHT,15,-6.15,1275,1107.2,310.9,2,63.19,1261,1067.2,306.6,RIGHT,NONE,1,82,1,472,north_west,0,south_east,0,0,0,0,262,217,1,north_east,0,219,202
SRC01TR,5.81,157.16,FALSE,RIGHT,37,-43.66,1038,1061.7,723,1,289.59,1002,856.4,526.5,RIGHT,NONE,1,83,1,577,north_west,0,south_east,0,1,0,0,328,291,1,south_east,0,220,203
SRC01TR,0.91,60.8,FALSE,RIGHT,15,-10.99,1290,1099.8,743.2,2,69.83,1276,1055.8,734.6,RIGHT,NONE,1,83,1,577,north_west,0,south_east,0,1,0,0,328,291,1,south_east,0,220,203
SRC01TR,6.42,156.58,FALSE,DOWN,41,-48.45,847,1032.3,736.7,1,308.38,807,824.7,501.3,RIGHT,NONE,1,84,1,436,north_west,0,south_east,0,1,0,0,279,239,1,south_east,0,221,204
SRC01TR,0.58,57.65,FALSE,RIGHT,10,3.43,1068,1050.6,716.7,2,53.05,1059,1022.4,718.4,RIGHT,NONE,1,84,1,436,north_west,0,south_east,0,1,0,0,279,239,1,south_east,0,221,204
SRC01TR,0.24,40.53,FALSE,.,6,7.29,409,869.5,536.5,1,34.46,404,857.8,538,RIGHT,NONE,1,85,1,669,north_west,0,south_east,0,0,0,0,286,241,1,north_east,0,221,205
SRC01TR,6.03,131.07,FALSE,UP,46,45.39,1088,1067,309.5,2,239.45,1043,861,518.3,RIGHT,NONE,1,85,1,669,north_west,0,south_east,0,0,0,0,286,241,1,north_east,0,221,205
SRC01TR,1,62.67,FALSE,RIGHT,16,11.8,1326,1097.6,310.8,3,74.92,1311,1049.7,320.8,RIGHT,NONE,1,85,1,669,north_west,0,south_east,0,0,0,0,286,241,1,north_east,0,221,205
SRC01TR,6.06,151.45,FALSE,DOWN,40,-45.58,972,1032.8,732.6,1,289.85,933,826.1,520.8,RIGHT,NONE,1,86,1,579,north_west,0,south_east,0,1,0,0,258,219,1,south_east,0,222,206
SRC01TR,0.63,52.72,FALSE,RIGHT,12,-2.57,1207,1056.3,740.9,2,51.98,1196,1025.3,739.5,RIGHT,NONE,1,86,1,579,north_west,0,south_east,0,1,0,0,258,219,1,south_east,0,222,206
SRC01TR,6,157.93,FALSE,RIGHT,38,-40.4,864,1065.2,697.6,1,290.33,827,842.4,507.4,RIGHT,NONE,1,87,1,451,north_west,0,south_east,0,1,0,0,278,241,1,south_east,0,223,207
SRC01TR,0.27,18.96,FALSE,.,14,-70.22,1110,1056.1,707.4,2,33.26,1097,1051.7,695.1,RIGHT,NONE,1,87,1,451,north_west,0,south_east,0,1,0,0,278,241,1,south_east,0,223,207
SRC01TR,0.57,35.56,FALSE,RIGHT,16,-12.96,1331,1079.5,721.7,3,55.37,1316,1052.3,715.4,RIGHT,NONE,1,87,1,451,north_west,0,south_east,0,1,0,0,278,241,1,south_east,0,223,207
SRC01TR,5.41,154.51,FALSE,LEFT,35,-138.42,998,633.8,695.7,1,252.09,964,831,520.2,RIGHT,NONE,1,88,1,590,north_west,0,south_east,0,0,0,0,286,252,1,south_west,0,223,208
SRC01TR,5.28,138.99,FALSE,LEFT,38,-145.16,1094,619.8,662.5,1,224.34,1057,830.9,515.1,RIGHT,NONE,1,89,1,678,north_west,0,south_east,0,0,1,0,282,245,1,south_west,0,223,209
SRC01TR,0.5,45.13,FALSE,.,11,-84.81,1300,620.6,681.4,2,48.45,1290,618.4,657.1,RIGHT,NONE,1,89,1,678,north_west,0,south_east,0,0,1,0,282,245,1,south_west,0,223,209
SRC01TR,0.25,41.78,FALSE,.,6,174.35,440,825.6,528.6,1,32.01,435,837.7,529.8,RIGHT,NONE,1,90,1,661,north_west,0,south_east,0,0,0,0,311,267,1,north_east,0,223,210
SRC01TR,6.99,155.36,FALSE,RIGHT,45,40.72,1106,1079.4,302.8,2,286.99,1062,821.6,524.9,RIGHT,NONE,1,90,1,661,north_west,0,south_east,0,0,0,0,311,267,1,north_east,0,223,210
SRC01TR,0.34,42.76,FALSE,.,8,-174.49,1526,1044.4,324.1,3,38.49,1519,1061,322.5,RIGHT,NONE,1,90,1,661,north_west,0,south_east,0,0,0,0,311,267,1,north_east,0,223,210
SRC01TR,6.65,151.07,FALSE,RIGHT,44,43.03,1045,1079.3,304.3,1,274.5,1002,842.9,525.2,RIGHT,NONE,1,91,1,637,north_west,0,south_east,0,0,0,0,272,229,1,north_east,0,223,211
SRC01TR,0.91,41.5,FALSE,RIGHT,22,11.27,1335,1096.2,320.6,2,85.59,1314,1052.5,329.3,RIGHT,NONE,1,91,1,637,north_west,0,south_east,0,0,0,0,272,229,1,north_east,0,223,211
SRC01TR,6.35,158.77,FALSE,RIGHT,40,-41.48,902,1085.5,703,1,275.72,863,853.3,497.1,RIGHT,NONE,1,92,1,492,north_west,0,south_east,0,1,0,0,276,237,1,south_east,0,224,212
SRC01TR,0.25,13.94,FALSE,.,18,-53.06,1344,1063.1,732,2,39.78,1327,1055.7,722.1,RIGHT,NONE,1,92,1,492,north_west,0,south_east,0,1,0,0,276,237,1,south_east,0,224,212
SRC01TR,6.72,137.08,FALSE,UP,49,45.4,1123,1094.5,270.5,1,246.57,1075,864.8,503.4,RIGHT,NONE,1,93,1,716,north_west,0,south_east,0,0,0,0,274,226,1,north_east,0,224,213
SRC01TR,0.89,55.36,FALSE,RIGHT,16,-12.15,1421,1118.3,302.3,2,67.19,1406,1076,293.2,RIGHT,NONE,1,93,1,716,north_west,0,south_east,0,0,0,0,274,226,1,north_east,0,224,213
SRC01TR,5.83,157.6,FALSE,LEFT,37,-136.47,659,641.8,717,1,263.83,623,847.9,520.4,RIGHT,NONE,1,94,1,252,north_west,0,south_east,0,0,0,0,286,250,1,south_west,0,224,214
SRC01TR,5.6,127.21,FALSE,UP,44,132.05,1032,653,311.5,1,222.52,989,835.2,513.7,RIGHT,NONE,1,95,1,615,north_west,0,south_east,0,10,0,0,283,239,1,north_west,0,234,215
SRC01TR,0.44,49.32,FALSE,.,9,163.06,1279,614.9,313.6,2,41.97,1271,635.6,319.9,RIGHT,NONE,1,95,1,615,north_west,0,south_east,0,10,0,0,283,239,1,north_west,0,234,215
SRC01TR,0.8,53.43,FALSE,RIGHT,15,3.53,1494,650.1,321.3,3,62.21,1480,611.1,323.7,RIGHT,NONE,1,95,1,615,north_west,0,south_east,0,10,0,0,283,239,1,north_west,0,234,215
SRC01TR,0.43,47.45,FALSE,.,9,-1.93,153,856.7,517.9,1,41.58,145,836,517.2,RIGHT,NONE,1,96,1,421,north_west,0,south_east,0,10,0,0,262,221,1,north_west,0,244,216
SRC01TR,5.95,141.59,FALSE,LEFT,42,136.43,816,640.2,303.5,2,207.18,775,849.6,502.9,RIGHT,NONE,1,96,1,421,north_west,0,south_east,0,10,0,0,262,221,1,north_west,0,244,216
SRC01TR,6.93,165.04,FALSE,DOWN,42,-52.06,735,1053.7,794.7,1,311.55,694,845.5,526.3,RIGHT,NONE,1,97,1,284,north_west,0,south_east,0,1,0,0,318,277,1,south_east,0,245,217
SRC01TR,1.43,57.13,FALSE,UP,25,71.65,892,1068.6,724.9,2,93.22,868,1046.5,792,RIGHT,NONE,1,97,1,284,north_west,0,south_east,0,1,0,0,318,277,1,south_east,0,245,217
SRC01TR,0.32,45.01,FALSE,.,7,60.15,1159,1076.1,727.3,3,33.58,1153,1068.4,740.8,RIGHT,NONE,1,97,1,284,north_west,0,south_east,0,1,0,0,318,277,1,south_east,0,245,217
SRC01TR,5.67,157.51,FALSE,LEFT,36,-138.15,678,619.7,721.4,1,275.42,643,825.6,536.2,RIGHT,NONE,1,98,1,282,north_west,0,south_east,0,0,0,0,262,226,1,south_west,0,245,218
SRC01TR,0.61,50.89,FALSE,LEFT,12,-159.41,990,574.6,729,2,50.07,979,602.7,718.4,RIGHT,NONE,1,98,1,282,north_west,0,south_east,0,0,0,0,262,226,1,south_west,0,245,218
SRC01TR,0.6,42.54,FALSE,LEFT,14,-137.22,89,813.2,562.3,1,46.67,76,834.4,542.6,RIGHT,NONE,1,99,1,319,north_west,0,south_east,0,0,0,0,323,283,1,south_west,0,245,219
SRC01TR,1.59,72.13,FALSE,RIGHT,22,41.55,241,864.5,523,2,102.32,220,806.9,574.2,RIGHT,NONE,1,99,1,319,north_west,0,south_east,0,0,0,0,323,283,1,south_west,0,245,219
SRC01TR,6.98,170.29,FALSE,DOWN,41,-134.32,775,606.2,767.4,3,295.12,735,844.5,522.4,RIGHT,NONE,1,99,1,319,north_west,0,south_east,0,0,0,0,323,283,1,south_west,0,245,219
SRC01TR,0.82,54.82,FALSE,RIGHT,15,25.44,986,639,758.1,4,61.82,972,602.5,775.6,RIGHT,NONE,1,99,1,319,north_west,0,south_east,0,0,0,0,323,283,1,south_west,0,245,219
SRC01TR,7.96,189.51,FALSE,RIGHT,42,-40.08,664,1147,782.2,1,360.29,623,848.6,530.3,RIGHT,NONE,1,100,2,214,north_west,0,south_east,0,-1,0,0,2293,461,0,south_east,1,244,220
SRC01TR,0.95,68.1,FALSE,LEFT,14,150.48,822,1080.6,755.7,2,73.12,809,1121.5,779,RIGHT,NONE,1,100,2,214,north_west,0,south_east,0,-1,0,0,2293,461,0,south_east,1,244,220
SRC01TR,1.02,44.18,FALSE,UP,23,106.2,2642,1037.7,725.3,3,54.06,2620,1051.6,773.5,RIGHT,NONE,1,100,2,214,north_west,0,south_east,0,-1,0,0,2293,461,0,south_east,1,244,220
SRC01TR,7.28,169.28,FALSE,DOWN,43,-45.96,1145,1071.9,782,1,334.05,1103,824.7,525.1,RIGHT,NONE,1,101,1,741,north_west,0,south_east,0,10,0,0,274,232,1,south_east,0,254,221
SRC01TR,0.8,57.03,FALSE,UP,14,81.65,1303,1057.4,738.7,2,61.65,1290,1051.7,777.8,RIGHT,NONE,1,101,1,741,north_west,0,south_east,0,10,0,0,274,232,1,south_east,0,254,221
SRC01TR,4.89,139.57,FALSE,LEFT,35,142.36,873,657,386.9,1,228.74,839,844.8,531.9,RIGHT,NONE,1,102,1,470,north_west,0,south_east,0,10,0,0,271,237,1,north_west,0,264,222
SRC01TR,0.82,58.34,FALSE,UP,14,79.42,1087,633.6,314.5,2,65.36,1074,626.3,353.6,RIGHT,NONE,1,102,1,470,north_west,0,south_east,0,10,0,0,271,237,1,north_west,0,264,222
SRC01TR,0.26,13.92,FALSE,.,19,25.77,1414,635.2,321.2,3,39.67,1396,623.6,326.8,RIGHT,NONE,1,102,1,470,north_west,0,south_east,0,10,0,0,271,237,1,north_west,0,264,222
SRC01TR,5.67,138.41,FALSE,DOWN,41,-46.62,1152,1020.5,694.3,1,253.84,1112,830.7,492.6,RIGHT,NONE,1,103,1,745,north_west,0,south_east,0,1,0,0,273,232,1,south_east,0,265,223
SRC01TR,0.72,55.29,FALSE,RIGHT,13,-8.46,1348,1045.6,692,2,57.46,1336,1010.8,686.8,RIGHT,NONE,1,103,1,745,north_west,0,south_east,0,1,0,0,273,232,1,south_east,0,265,223
SRC01TR,0.88,54.89,FALSE,RIGHT,16,2.38,1578,1079,697.6,3,68.23,1563,1036,699.4,RIGHT,NONE,1,103,1,745,north_west,0,south_east,0,1,0,0,273,232,1,south_east,0,265,223
SRC01TR,6.78,157.76,FALSE,RIGHT,43,43.47,811,1075.4,303.8,1,314.27,769,835.9,531.1,RIGHT,NONE,1,104,1,358,north_west,0,south_east,0,0,0,0,331,290,1,north_east,0,265,224
SRC01TR,0.27,44.89,FALSE,.,6,16.88,230,844.9,533.4,1,35.23,225,832.4,537.2,RIGHT,NONE,1,105,1,559,north_west,0,south_east,0,0,0,0,248,201,1,south_west,0,265,225
SRC01TR,6.28,130.77,FALSE,LEFT,48,-137.63,940,609.3,736.9,2,296.51,893,835.6,529.6,RIGHT,NONE,1,105,1,559,north_west,0,south_east,0,0,0,0,248,201,1,south_west,0,265,225
SRC01TR,0.9,56.47,FALSE,RIGHT,16,3.08,1149,638.1,742.9,3,70.41,1134,593.8,745.3,RIGHT,NONE,1,105,1,559,north_west,0,south_east,0,0,0,0,248,201,1,south_west,0,265,225
SRC01TR,6.1,148.88,FALSE,DOWN,41,-45.68,1080,1041.7,752.8,1,281.45,1040,833.6,538.8,RIGHT,NONE,1,106,1,667,north_west,0,south_east,0,1,0,0,278,238,1,south_east,0,266,226
SRC01TR,0.79,56.36,FALSE,RIGHT,14,0,1273,1065.4,751.3,2,60,1260,1026.7,751.3,RIGHT,NONE,1,106,1,667,north_west,0,south_east,0,1,0,0,278,238,1,south_east,0,266,226
SRC01TR,7.27,148.33,FALSE,RIGHT,49,44.03,1225,1087.3,257.3,1,255.35,1177,832.8,503.3,RIGHT,NONE,1,107,1,796,north_west,0,south_east,0,0,0,0,293,245,1,north_east,0,266,227
SRC01TR,0.49,49.07,FALSE,.,10,-0.24,62,866.4,528.9,1,45.73,53,842.6,528.8,RIGHT,NONE,1,108,1,346,north_west,0,south_east,0,10,0,0,297,246,1,south_east,0,276,228
SRC01TR,6.99,134.47,FALSE,DOWN,52,-47.68,778,1083.4,799.1,2,349.7,727,853.2,544.7,RIGHT,NONE,1,108,1,346,north_west,0,south_east,0,10,0,0,297,246,1,south_east,0,276,228
SRC01TR,0.95,63.63,FALSE,UP,15,82.67,944,1084.4,763.9,3,73.76,930,1078.4,810.9,RIGHT,NONE,1,108,1,346,north_west,0,south_east,0,10,0,0,297,246,1,south_east,0,276,228
SRC01TR,0.36,44.84,FALSE,.,8,159.52,99,825.3,523.3,1,36.43,92,841.6,529.4,RIGHT,NONE,1,109,1,273,north_west,0,south_east,0,0,0,0,290,244,1,north_east,0,276,229
SRC01TR,0.28,40.64,FALSE,.,7,22.99,370,845,519.3,2,33,364,832.3,524.7,RIGHT,NONE,1,109,1,273,north_west,0,south_east,0,0,0,0,290,244,1,north_east,0,276,229
SRC01TR,6.8,144.75,FALSE,RIGHT,47,40.57,695,1087.6,302.9,3,250.41,649,836.2,518.4,RIGHT,NONE,1,109,1,273,north_west,0,south_east,0,0,0,0,290,244,1,north_east,0,276,229
SRC01TR,6.56,168.11,FALSE,LEFT,39,-136.09,1045,630,743.8,1,292.99,1007,860.5,521,RIGHT,NONE,1,110,1,629,north_west,0,south_east,0,0,0,0,282,244,1,south_west,0,276,230
SRC01TR,1.05,61.71,FALSE,RIGHT,17,2.66,1509,684.9,725.4,2,78.92,1493,633.6,727.8,RIGHT,NONE,1,110,1,629,north_west,0,south_east,0,0,0,0,282,244,1,south_west,0,276,230
SRC01TR,6.24,145.19,FALSE,DOWN,43,-47.71,1118,1031,744.8,1,283.65,1076,826.2,518.5,RIGHT,NONE,1,111,1,695,north_west,0,south_east,0,1,0,0,289,247,1,south_east,0,277,231
SRC01TR,0.93,54.83,FALSE,RIGHT,17,-1.62,1301,1069,726.6,2,70.67,1285,1023.3,725.3,RIGHT,NONE,1,111,1,695,north_west,0,south_east,0,1,0,0,289,247,1,south_east,0,277,231
SRC01TR,0.92,57.59,FALSE,RIGHT,16,15.97,1583,1101.9,708.9,3,69.14,1568,1058.4,721.4,RIGHT,NONE,1,111,1,695,north_west,0,south_east,0,1,0,0,289,247,1,south_east,0,277,231
SRC01TR,6.37,148.16,FALSE,LEFT,43,135.77,862,611.8,291.5,1,220.85,820,833.9,507.9,RIGHT,NONE,1,112,1,428,north_west,0,south_east,0,10,0,0,300,258,1,north_west,0,287,232
SRC01TR,0.98,57.92,FALSE,RIGHT,17,0.48,1300,651.1,311.3,2,75.49,1284,603.1,311.7,RIGHT,NONE,1,112,1,428,north_west,0,south_east,0,10,0,0,300,258,1,north_west,0,287,232
SRC01TR,6.43,146.14,FALSE,RIGHT,44,39.48,1011,1055.7,322.8,1,253.93,968,814.5,521.7,RIGHT,NONE,1,113,1,609,north_west,0,south_east,0,0,0,0,283,239,1,north_east,0,287,233
SRC01TR,0.46,28.57,FALSE,.,16,85.62,1266,1038.4,312.1,2,36.45,1251,1036.7,334.3,RIGHT,NONE,1,113,1,609,north_west,0,south_east,0,0,0,0,283,239,1,north_east,0,287,233
SRC01TR,6.01,117.83,FALSE,LEFT,51,-141.65,1052,606,704.8,1,266.66,1002,836,522.3,RIGHT,NONE,1,114,1,649,north_west,0,south_east,0,0,0,0,285,235,1,south_west,0,287,234
SRC01TR,1.03,42.94,FALSE,RIGHT,24,10.54,1286,640.8,711.8,2,95.24,1263,591.1,721.1,RIGHT,NONE,1,114,1,649,north_west,0,south_east,0,0,0,0,285,235,1,south_west,0,287,234
SRC01TR,1.04,61.44,FALSE,LEFT,17,-176.78,1447,568.6,719.4,3,79.76,1431,619.8,716.5,RIGHT,NONE,1,114,1,649,north_west,0,south_east,0,0,0,0,285,235,1,south_west,0,287,234
SRC01TR,4.94,123.62,FALSE,LEFT,40,149.94,801,629.7,397.8,1,197.31,762,837.7,518.3,RIGHT,NONE,1,115,2,424,north_west,0,south_east,0,-1,0,0,412,360,0,south_west,1,286,235
SRC01TR,6.1,117.4,FALSE,DOWN,52,-89.1,968,627.6,706.7,2,286.77,917,622.9,407.6,RIGHT,NONE,1,115,2,424,north_west,0,south_east,0,-1,0,0,412,360,0,south_west,1,286,235
SRC01TR,5.92,134.55,FALSE,UP,44,134.9,1063,636.7,306.1,1,211.1,1020,839.8,510.1,RIGHT,NONE,1,116,1,658,north_west,0,south_east,0,10,0,0,270,227,1,north_west,0,296,236
SRC01TR,0.23,38.14,FALSE,.,6,5.15,1403,631.6,319.7,2,30.92,1398,620.5,320.7,RIGHT,NONE,1,116,1,658,north_west,0,south_east,0,10,0,0,270,227,1,north_west,0,296,236
SRC01TR,6.07,119.05,FALSE,RIGHT,51,-39.89,691,1050.6,706.2,1,351.11,641,823.5,515.6,RIGHT,NONE,1,117,1,210,north_west,0,south_east,0,1,0,0,348,298,1,south_east,0,297,237
SRC01TR,0.09,5.12,FALSE,.,18,-43.04,1141,1040.8,732.1,2,37.12,1124,1037.5,729,RIGHT,NONE,1,117,1,210,north_west,0,south_east,0,1,0,0,348,298,1,south_east,0,297,237
SRC01TR,6.77,165.16,FALSE,DOWN,41,-46.12,804,1064.8,769.2,1,331.71,764,835.5,529.8,RIGHT,NONE,1,118,1,385,north_west,0,south_east,0,1,1,0,285,245,1,south_east,0,298,238
SRC01TR,0.32,8.4,FALSE,.,38,5.81,1345,1064.4,754.9,2,46.03,1308,1048.8,756.5,RIGHT,NONE,1,118,1,385,north_west,0,south_east,0,1,1,0,285,245,1,south_east,0,298,238
SRC01TR,6.24,145.01,FALSE,LEFT,43,139.23,859,619.3,328.9,1,224.56,817,848.8,527,RIGHT,NONE,1,119,1,439,north_west,0,south_east,0,10,0,0,286,243,1,north_west,0,308,239
SRC01TR,0.43,47.68,FALSE,.,9,16.11,1104,630.1,329.4,2,39.34,1096,610,335.2,RIGHT,NONE,1,119,1,439,north_west,0,south_east,0,10,0,0,286,243,1,north_west,0,308,239
SRC01TR,0.29,41.55,FALSE,.,7,173.92,1296,607.8,325.9,3,33.66,1290,621.9,327.4,RIGHT,NONE,1,119,1,439,north_west,0,south_east,0,10,0,0,286,243,1,north_west,0,308,239
SRC01TR,0.53,31.34,FALSE,LEFT,17,170.67,52,810,516.4,1,54.22,36,835.5,520.6,RIGHT,NONE,2,0,1,214,north_west,0,south_east,0,10,0,0,278,237,1,north_west,0,318,240
SRC01TR,0.55,55.34,FALSE,RIGHT,10,-3.2,187,839,517.2,2,50.95,178,812.2,515.7,RIGHT,NONE,2,0,1,214,north_west,0,south_east,0,10,0,0,278,237,1,north_west,0,318,240
SRC01TR,5.8,138.05,FALSE,UP,42,131.31,627,629.7,322,3,211.66,586,815.7,533.9,RIGHT,NONE,2,0,1,214,north_west,0,south_east,0,10,0,0,278,237,1,north_west,0,318,240
SRC01TR,6.93,169.13,FALSE,RIGHT,41,-44.14,1083,1081,776.4,1,311.58,1043,837.9,539.3,RIGHT,NONE,2,1,1,666,north_west,0,south_east,0,1,0,0,282,242,1,south_east,0,319,241
SRC01TR,0.3,42.56,FALSE,.,7,66.27,1311,1072.7,756.5,2,35.86,1305,1066.8,770,RIGHT,NONE,2,1,1,666,north_west,0,south_east,0,1,0,0,282,242,1,south_east,0,319,241
SRC01TR,0.2,34.1,FALSE,.,6,12.19,387,847,513.3,1,31.1,382,837.3,515.4,RIGHT,NONE,2,2,1,733,north_west,0,south_east,0,0,0,0,268,223,1,north_east,0,319,242
SRC01TR,6.24,135.75,FALSE,RIGHT,46,43.6,1135,1059.8,294.9,2,260.07,1090,839.8,504.4,RIGHT,NONE,2,2,1,733,north_west,0,south_east,0,0,0,0,268,223,1,north_east,0,319,242
SRC01TR,5.74,136.68,FALSE,UP,42,129.08,711,674.6,296.3,1,216.01,670,850.3,513.1,RIGHT,NONE,2,3,1,313,north_west,0,south_east,0,10,0,0,265,224,1,north_west,0,329,243
SRC01TR,0.44,48.7,FALSE,.,9,176.24,945,632.7,305.4,2,41.68,937,654,306.8,RIGHT,NONE,2,3,1,313,north_west,0,south_east,0,10,0,0,265,224,1,north_west,0,329,243
SRC01TR,0.39,43.3,FALSE,.,9,0.3,205,851.2,518.9,1,38.4,197,832.3,519,RIGHT,NONE,2,4,1,346,north_west,0,south_east,0,10,1,0,257,215,1,north_west,0,339,244
SRC01TR,5.99,139.4,FALSE,UP,43,131.18,737,636.6,287.6,2,223.1,695,828.4,507.1,RIGHT,NONE,2,4,1,346,north_west,0,south_east,0,10,1,0,257,215,1,north_west,0,339,244
SRC01TR,0.4,50.61,FALSE,.,8,3.49,1142,632.1,292.5,3,42.42,1135,612.4,293.7,RIGHT,NONE,2,4,1,346,north_west,0,south_east,0,10,1,0,257,215,1,north_west,0,339,244
SRC01TR,0.4,44.37,FALSE,.,9,20.83,445,869.2,521.7,1,39.25,437,851.1,528.6,RIGHT,NONE,2,5,1,644,north_west,0,south_east,0,10,0,0,258,220,1,north_west,0,349,245
SRC01TR,5.75,147.55,FALSE,LEFT,39,137.62,1034,652.5,326.2,2,220.71,996,859.1,514.9,RIGHT,NONE,2,5,1,644,north_west,0,south_east,0,10,0,0,258,220,1,north_west,0,349,245
SRC01TR,6.11,160.73,FALSE,DOWN,38,-129.65,1162,677,726.7,1,278.64,1125,866.8,496.5,RIGHT,NONE,2,6,1,770,north_west,0,south_east,0,0,0,0,261,223,1,south_west,0,349,246
SRC01TR,0.7,58.44,FALSE,UP,12,83.31,1361,669.1,703.3,2,59.04,1350,665.1,737.6,RIGHT,NONE,2,6,1,770,north_west,0,south_east,0,0,0,0,261,223,1,south_west,0,349,246
SRC01TR,6.78,147.49,FALSE,RIGHT,46,40.09,808,1087.7,328.5,1,278.27,763,835.2,541.5,RIGHT,NONE,2,7,1,362,north_west,0,south_east,0,0,0,0,314,269,1,north_east,0,349,247
SRC01TR,6.5,129.94,FALSE,RIGHT,50,-42.31,720,1080.7,741.5,1,304.71,671,846,527.2,RIGHT,NONE,2,8,1,264,north_west,0,south_east,0,1,0,0,323,274,1,south_east,0,350,248
SRC01TR,0.35,43.24,FALSE,.,8,161.25,929,1061.4,747.7,2,35.96,922,1077.5,753.2,RIGHT,NONE,2,8,1,264,north_west,0,south_east,0,1,0,0,323,274,1,south_east,0,350,248
SRC01TR,0.4,40.44,FALSE,.,10,67.81,1132,1069.1,726.7,3,36.67,1123,1061.6,745.2,RIGHT,NONE,2,8,1,264,north_west,0,south_east,0,1,0,0,323,274,1,south_east,0,350,248
SRC01TR,5.56,154.53,FALSE,LEFT,36,-140.95,843,619.5,677.5,1,301.57,808,830.1,506.1,RIGHT,NONE,2,9,1,423,north_west,0,south_east,0,0,0,0,285,249,1,south_west,0,350,249
SRC01TR,5.92,137.73,FALSE,UP,43,133.38,700,644.5,309.3,1,199.2,658,842.2,518.7,RIGHT,NONE,2,10,1,301,north_west,0,south_east,0,10,0,0,266,224,1,north_west,0,360,250
SRC01TR,0.47,47.39,FALSE,.,10,-179.01,979,600,316.3,2,42.52,970,623.1,315.9,RIGHT,NONE,2,10,1,301,north_west,0,south_east,0,10,0,0,266,224,1,north_west,0,360,250
SRC01TR,0.36,44.57,FALSE,.,8,8.28,1151,619.8,315.9,3,37.82,1144,602.6,318.4,RIGHT,NONE,2,10,1,301,north_west,0,south_east,0,10,0,0,266,224,1,north_west,0,360,250
SRC01TR,5.84,126.91,FALSE,UP,46,131.45,1102,666.3,279.4,1,183.99,1057,854.1,492.3,RIGHT,NONE,2,11,1,693,north_west,0,south_east,0,10,0,0,273,228,1,north_west,0,370,251
SRC01TR,6.98,155.2,FALSE,RIGHT,45,40.7,961,1078.8,298.9,1,275.33,917,821.2,520.7,RIGHT,NONE,2,12,1,569,north_west,0,south_east,0,0,0,0,270,226,1,north_east,0,370,252
SRC01TR,0.94,62.56,FALSE,LEFT,15,-179.75,1423,1014.6,304.7,2,69.16,1409,1060.3,304.5,RIGHT,NONE,2,12,1,569,north_west,0,south_east,0,0,0,0,270,226,1,north_east,0,370,252
SRC01TR,5.5,157.02,FALSE,LEFT,35,-137.05,640,643.3,703.4,1,266.44,606,839.4,520.3,RIGHT,NONE,2,13,1,212,north_west,0,south_east,0,0,0,0,295,261,1,south_west,0,370,253
SRC01TR,0.87,57.83,FALSE,LEFT,15,-166.77,980,570.4,726.6,2,67.61,966,611.9,716.8,RIGHT,NONE,2,13,1,212,north_west,0,south_east,0,0,0,0,295,261,1,south_west,0,370,253
SRC01TR,6,133.26,FALSE,UP,45,131.26,1048,652.6,302.9,1,211.08,1004,844.8,522.2,RIGHT,NONE,2,14,1,664,north_west,0,south_east,0,10,0,0,252,208,1,north_west,0,380,254
SRC01TR,0.29,41.64,FALSE,.,7,-177.98,1370,614.9,317.9,2,34.54,1364,629.1,317.4,RIGHT,NONE,2,14,1,664,north_west,0,south_east,0,10,0,0,252,208,1,north_west,0,380,254
SRC01TR,0.42,47.04,FALSE,.,9,6.68,1541,638.5,320.5,3,41.52,1533,618,322.9,RIGHT,NONE,2,14,1,664,north_west,0,south_east,0,10,0,0,252,208,1,north_west,0,380,254
SRC01TR,5.99,127.55,FALSE,UP,47,133.08,625,673.2,294.9,1,197.67,579,872,507.9,RIGHT,NONE,2,15,1,210,north_west,0,south_east,0,10,0,0,283,237,1,north_west,0,390,255
SRC01TR,2.85,91.86,FALSE,LEFT,31,140.46,401,749.2,452.3,1,121.62,371,855.7,540.5,RIGHT,NONE,2,16,1,401,north_west,0,south_east,1,-1,0,0,50,26,0,south_east,1,389,256
SRC01TR,2.06,82.26,FALSE,UP,25,114.56,583,694.4,363.7,2,109.05,559,735.9,454.6,RIGHT,NONE,2,16,1,401,north_west,0,south_east,1,-1,0,0,50,26,0,south_east,1,389,256
SRC01TR,10.57,199.5,FALSE,RIGHT,53,-42.21,935,1062.3,724.3,3,430.39,883,679.7,376.6,RIGHT,NONE,2,16,1,401,north_west,0,south_east,1,-1,0,0,50,26,0,south_east,1,389,256
SRC01TR,6.38,125.07,FALSE,RIGHT,51,-42.96,695,1049.8,743.1,1,318.18,645,822,530.1,RIGHT,NONE,2,17,1,235,north_west,0,south_east,0,1,0,0,326,276,1,south_east,0,390,257
SRC01TR,0.33,41.85,FALSE,.,8,3.88,380,862.5,510.3,1,35.9,373,846.3,511.4,RIGHT,NONE,2,18,1,738,north_west,0,south_east,0,0,0,0,297,254,1,north_east,0,390,258
SRC01TR,6.11,138.78,FALSE,RIGHT,44,41.18,1169,1082.5,309.7,2,228.45,1126,858.9,505.5,RIGHT,NONE,2,18,1,738,north_west,0,south_east,0,0,0,0,297,254,1,north_east,0,390,258
SRC01TR,0.3,14.8,FALSE,.,20,60.11,1560,1075.9,315.5,3,45.62,1541,1068.7,328,RIGHT,NONE,2,18,1,738,north_west,0,south_east,0,0,0,0,297,254,1,north_east,0,390,258
SRC01TR,6.42,168.9,FALSE,LEFT,38,-137.14,678,606.8,740.6,1,313.52,641,836.4,526.7,RIGHT,NONE,2,19,1,250,north_west,0,south_east,0,0,0,0,296,259,1,south_west,0,390,259
SRC01TR,1.02,53.91,FALSE,RIGHT,19,12.76,1028,635.7,755.3,2,80.2,1010,586.6,766.5,RIGHT,NONE,2,19,1,250,north_west,0,south_east,0,0,0,0,296,259,1,south_west,0,390,259
