RECORDING_SESSION_LABEL,CURRENT_SAC_CONTAINS_BLINK,CURRENT_SAC_DIRECTION,CURRENT_SAC_DURATION,CURRENT_SAC_END_TIME,CURRENT_SAC_END_X,CURRENT_SAC_END_Y,CURRENT_SAC_INDEX,CURRENT_SAC_START_TIME,CURRENT_SAC_START_X,CURRENT_SAC_START_Y,CURRENT_SAC_ANGLE,CURRENT_SAC_AMPLITUDE,CURRENT_SAC_PEAK_VELOCITY,NEXT_FIX_BLINK_AROUND,answer,block_number,block_trial_number,c_target,emcount,fix_to_stim,high_location,looked_distractor,low_location,not_fixated,points_received,ques_trial,response_key,response_time,sac_latency,target_correct,target_position,too_late,total_points,trial_number
SRC01TE1,FALSE,LEFT,22,554,773.7,460.1,1,533,832.3,508.2,140.68,1.56,105.23,NONE,left,0,UNDEFINED,left,UNDEFINED,628,north_west,UNDEFINED,south_east,UNDEFINED,UNDEFINED,UNDEFINED,left,397,UNDEFINED,1,north_east,UNDEFINED,UNDEFINED,0
SRC01TE1,FALSE,UP,26,955,779.1,328.9,2,930,758.5,448.3,80.19,2.49,116.23,NONE,left,0,UNDEFINED,left,UNDEFINED,628,north_west,UNDEFINED,south_east,UNDEFINED,UNDEFINED,UNDEFINED,left,397,UNDEFINED,1,north_east,UNDEFINED,UNDEFINED,0
SRC01TE1,FALSE,RIGHT,39,1044,1110.3,249.2,3,1006,768.9,308.4,9.84,7.11,351.86,NONE,left,0,UNDEFINED,left,UNDEFINED,628,north_west,UNDEFINED,south_east,UNDEFINED,UNDEFINED,UNDEFINED,left,397,UNDEFINED,1,north_east,UNDEFINED,UNDEFINED,0
SRC01TE1,FALSE,UP,36,574,827.1,380.2,1,539,835.9,532.2,93.32,3.14,109.43,NONE,left,0,UNDEFINED,left,UNDEFINED,257,north_west,UNDEFINED,south_east,UNDEFINED,UNDEFINED,UNDEFINED,right,408,UNDEFINED,0,north_east,UNDEFINED,UNDEFINED,1
SRC01TE1,FALSE,RIGHT,33,676,1033.7,352.9,2,644,810.9,389.8,9.39,4.65,264.52,NONE,left,0,UNDEFINED,left,UNDEFINED,257,north_west,UNDEFINED,south_east,UNDEFINED,UNDEFINED,UNDEFINED,right,408,UNDEFINED,0,north_east,UNDEFINED,UNDEFINED,1
SRC01TE1,FALSE,RIGHT,22,500,921.1,494.9,1,479,831.2,520.2,15.69,1.93,123.65,NONE,right,0,UNDEFINED,right,UNDEFINED,608,north_west,UNDEFINED,south_east,UNDEFINED,UNDEFINED,UNDEFINED,right,791,UNDEFINED,1,north_east,UNDEFINED,UNDEFINED,2
SRC01TE1,FALSE,DOWN,32,802,813.1,672,2,771,901.4,483.2,-115.16,4.27,224.35,NONE,right,0,UNDEFINED,right,UNDEFINED,608,north_west,UNDEFINED,south_east,UNDEFINED,UNDEFINED,UNDEFINED,right,791,UNDEFINED,1,north_east,UNDEFINED,UNDEFINED,2
SRC01TE1,FALSE,RIGHT,31,976,960.8,687.5,3,946,801.9,662.8,-8.77,3.3,189.05,NONE,right,0,UNDEFINED,right,UNDEFINED,608,north_west,UNDEFINED,south_east,UNDEFINED,UNDEFINED,UNDEFINED,right,791,UNDEFINED,1,north_east,UNDEFINED,UNDEFINED,2
SRC01TE1,FALSE,UP,51,1107,1057.2,276.5,4,1057,945.7,691.1,74.9,8.77,300.43,NONE,right,0,UNDEFINED,right,UNDEFINED,608,north_west,UNDEFINED,south_east,UNDEFINED,UNDEFINED,UNDEFINED,right,791,UNDEFINED,1,north_east,UNDEFINED,UNDEFINED,2
SRC01TE1,FALSE,UP,30,392,911.9,429.4,1,363,838.4,537.3,55.71,2.69,127.8,NONE,left,0,UNDEFINED,left,UNDEFINED,464,north_west,UNDEFINED,south_east,UNDEFINED,UNDEFINED,UNDEFINED,right,736,UNDEFINED,0,south_east,UNDEFINED,UNDEFINED,3
SRC01TE1,FALSE,RIGHT,42,778,1117.2,324.3,2,737,872.4,413.5,20.02,5.36,227.85,NONE,left,0,UNDEFINED,left,UNDEFINED,464,north_west,UNDEFINED,south_east,UNDEFINED,UNDEFINED,UNDEFINED,right,736,UNDEFINED,0,south_east,UNDEFINED,UNDEFINED,3
SRC01TE1,FALSE,LEFT,17,987,1048.9,352.8,3,971,1095.1,341.6,-166.37,0.98,78.6,NONE,left,0,UNDEFINED,left,UNDEFINED,464,north_west,UNDEFINED,south_east,UNDEFINED,UNDEFINED,UNDEFINED,right,736,UNDEFINED,0,south_east,UNDEFINED,UNDEFINED,3
SRC01TE1,FALSE,RIGHT,35,669,972.9,477.1,1,635,830.3,559.4,29.94,3.39,137.91,NONE,right,0,UNDEFINED,right,UNDEFINED,330,north_west,UNDEFINED,south_east,UNDEFINED,UNDEFINED,UNDEFINED,right,588,UNDEFINED,1,north_east,UNDEFINED,UNDEFINED,4
SRC01TE1,FALSE,UP,26,744,1044.5,392.4,2,719,962,483.6,47.84,2.53,166.33,NONE,right,0,UNDEFINED,right,UNDEFINED,330,north_west,UNDEFINED,south_east,UNDEFINED,UNDEFINED,UNDEFINED,right,588,UNDEFINED,1,north_east,UNDEFINED,UNDEFINED,4
SRC01TE1,FALSE,UP,12,942,1051.5,366.5,3,931,1030.3,393.4,51.79,0.7,60.61,NONE,right,0,UNDEFINED,right,UNDEFINED,330,north_west,UNDEFINED,south_east,UNDEFINED,UNDEFINED,UNDEFINED,right,588,UNDEFINED,1,north_east,UNDEFINED,UNDEFINED,4
SRC01TE1,FALSE,UP,23,585,812.6,447,1,563,836.6,515,109.48,1.49,80.48,NONE,right,0,UNDEFINED,right,UNDEFINED,427,north_west,UNDEFINED,south_east,UNDEFINED,UNDEFINED,UNDEFINED,right,543,UNDEFINED,1,north_east,UNDEFINED,UNDEFINED,5
SRC01TE1,FALSE,RIGHT,69,796,1058.5,314.7,2,728,790.6,443.7,25.69,6.12,239.37,NONE,right,0,UNDEFINED,right,UNDEFINED,427,north_west,UNDEFINED,south_east,UNDEFINED,UNDEFINED,UNDEFINED,right,543,UNDEFINED,1,north_east,UNDEFINED,UNDEFINED,5
SRC01TE1,FALSE,RIGHT,32,430,929.8,443.5,1,399,840.2,519.8,40.36,2.42,109.67,NONE,right,0,UNDEFINED,right,UNDEFINED,692,north_west,UNDEFINED,south_east,UNDEFINED,UNDEFINED,UNDEFINED,left,714,UNDEFINED,0,south_west,UNDEFINED,UNDEFINED,6
SRC01TE1,FALSE,RIGHT,22,676,967.7,384,2,655,891.8,434.9,33.79,1.89,129.13,NONE,right,0,UNDEFINED,right,UNDEFINED,692,north_west,UNDEFINED,south_east,UNDEFINED,UNDEFINED,UNDEFINED,left,714,UNDEFINED,0,south_west,UNDEFINED,UNDEFINED,6
SRC01TE1,FALSE,RIGHT,25,1014,1042.4,314.3,3,990,937.3,377.4,30.95,2.52,161.37,NONE,right,0,UNDEFINED,right,UNDEFINED,692,north_west,UNDEFINED,south_east,UNDEFINED,UNDEFINED,UNDEFINED,left,714,UNDEFINED,0,south_west,UNDEFINED,UNDEFINED,6
SRC01TE1,FALSE,LEFT,51,1315,607.3,706,4,1265,1034,316.8,-137.69,11.8,412.36,NONE,right,0,UNDEFINED,right,UNDEFINED,692,north_west,UNDEFINED,south_east,UNDEFINED,UNDEFINED,UNDEFINED,left,714,UNDEFINED,0,south_west,UNDEFINED,UNDEFINED,6
SRC01TE1,FALSE,.,9,397,837.4,548.9,1,389,860.3,552.6,170.86,0.48,46.28,NONE,left,0,UNDEFINED,left,UNDEFINED,651,north_west,UNDEFINED,south_east,UNDEFINED,UNDEFINED,UNDEFINED,left,607,UNDEFINED,1,north_west,UNDEFINED,UNDEFINED,7
SRC01TE1,FALSE,UP,22,853,880.6,453.3,2,832,831,530.1,57.06,1.88,121.06,NONE,left,0,UNDEFINED,left,UNDEFINED,651,north_west,UNDEFINED,south_east,UNDEFINED,UNDEFINED,UNDEFINED,left,607,UNDEFINED,1,north_west,UNDEFINED,UNDEFINED,7
SRC01TE1,FALSE,LEFT,40,1085,620.2,383.3,3,1046,874.4,456,164.07,5.44,199.32,NONE,left,0,UNDEFINED,left,UNDEFINED,651,north_west,UNDEFINED,south_east,UNDEFINED,UNDEFINED,UNDEFINED,left,607,UNDEFINED,1,north_west,UNDEFINED,UNDEFINED,7
SRC01TE1,FALSE,UP,24,446,878.8,460.4,1,423,832.1,520.5,52.07,1.57,98.65,NONE,right,0,UNDEFINED,right,UNDEFINED,647,north_west,UNDEFINED,south_east,UNDEFINED,UNDEFINED,UNDEFINED,right,494,UNDEFINED,1,north_west,UNDEFINED,UNDEFINED,12
SRC01TE1,FALSE,LEFT,23,1051,775.9,511.1,2,1029,859.3,461.3,-149.24,2,127.32,NONE,right,0,UNDEFINED,right,UNDEFINED,647,north_west,UNDEFINED,south_east,UNDEFINED,UNDEFINED,UNDEFINED,right,494,UNDEFINED,1,north_west,UNDEFINED,UNDEFINED,12
SRC01TE1,FALSE,RIGHT,44,1275,844,514.4,3,1232,777.2,522,6.48,1.39,111.13,.,right,0,UNDEFINED,right,UNDEFINED,647,north_west,UNDEFINED,south_east,UNDEFINED,UNDEFINED,UNDEFINED,right,494,UNDEFINED,1,north_west,UNDEFINED,UNDEFINED,12
SRC01TE1,FALSE,LEFT,25,1147,739,537.4,1,1123,839.8,507.7,-163.63,2.17,118.43,NONE,right,0,UNDEFINED,right,UNDEFINED,707,north_west,UNDEFINED,south_east,UNDEFINED,UNDEFINED,UNDEFINED,right,513,UNDEFINED,1,south_west,UNDEFINED,UNDEFINED,14
SRC01TE1,FALSE,RIGHT,24,1318,844,501.8,2,1295,736.3,537.8,18.43,2.34,153.51,NONE,right,0,UNDEFINED,right,UNDEFINED,707,north_west,UNDEFINED,south_east,UNDEFINED,UNDEFINED,UNDEFINED,right,513,UNDEFINED,1,south_west,UNDEFINED,UNDEFINED,14
SRC01TE1,FALSE,LEFT,34,812,687.5,591.6,1,779,838.3,508.5,-151.19,3.54,153.77,NONE,left,0,UNDEFINED,left,UNDEFINED,424,north_west,UNDEFINED,south_east,UNDEFINED,UNDEFINED,UNDEFINED,left,501,UNDEFINED,1,south_west,UNDEFINED,UNDEFINED,15
SRC01TE1,FALSE,RIGHT,34,987,834.6,499.5,2,954,686,594.4,32.51,3.63,164.56,NONE,left,0,UNDEFINED,left,UNDEFINED,424,north_west,UNDEFINED,south_east,UNDEFINED,UNDEFINED,UNDEFINED,left,501,UNDEFINED,1,south_west,UNDEFINED,UNDEFINED,15
SRC01TE1,FALSE,LEFT,21,844,786.5,479.3,1,824,842.4,511.9,149.8,1.33,66.38,NONE,right,0,UNDEFINED,right,UNDEFINED,297,north_west,UNDEFINED,south_east,UNDEFINED,UNDEFINED,UNDEFINED,right,646,UNDEFINED,1,north_west,UNDEFINED,UNDEFINED,18
SRC01TE1,FALSE,RIGHT,22,1038,857.4,489.1,2,1017,770.1,475.3,-8.96,1.82,123.15,NONE,right,0,UNDEFINED,right,UNDEFINED,297,north_west,UNDEFINED,south_east,UNDEFINED,UNDEFINED,UNDEFINED,right,646,UNDEFINED,1,north_west,UNDEFINED,UNDEFINED,18
SRC01TE1,FALSE,LEFT,30,972,709.2,565,1,943,829.4,525.9,-162.03,2.6,117.2,NONE,left,0,UNDEFINED,left,UNDEFINED,564,north_west,UNDEFINED,south_east,UNDEFINED,UNDEFINED,UNDEFINED,left,467,UNDEFINED,1,south_west,UNDEFINED,UNDEFINED,20
SRC01TE1,FALSE,RIGHT,24,1121,823.9,534.6,2,1098,707.8,570.9,17.31,2.5,159.52,NONE,left,0,UNDEFINED,left,UNDEFINED,564,north_west,UNDEFINED,south_east,UNDEFINED,UNDEFINED,UNDEFINED,left,467,UNDEFINED,1,south_west,UNDEFINED,UNDEFINED,20
SRC01TE1,FALSE,.,6,92,827.1,534.1,1,87,841.8,533.1,-176.12,0.3,36.38,NONE,right,0,UNDEFINED,right,UNDEFINED,589,north_west,UNDEFINED,south_east,UNDEFINED,UNDEFINED,UNDEFINED,right,505,UNDEFINED,1,south_west,UNDEFINED,UNDEFINED,21
SRC01TE1,FALSE,.,30,1241,841.7,510.7,2,1212,832.5,527,60.51,0.39,42.34,.,right,0,UNDEFINED,right,UNDEFINED,589,north_west,UNDEFINED,south_east,UNDEFINED,UNDEFINED,UNDEFINED,right,505,UNDEFINED,1,south_west,UNDEFINED,UNDEFINED,21
SRC01TE1,FALSE,.,7,446,849.8,502.8,1,440,833.8,504,4.28,0.33,38.88,NONE,left,0,UNDEFINED,left,UNDEFINED,331,north_west,UNDEFINED,south_east,UNDEFINED,UNDEFINED,UNDEFINED,left,490,UNDEFINED,1,south_west,UNDEFINED,UNDEFINED,22
SRC01TE1,FALSE,LEFT,28,584,696.2,600.7,1,557,830.6,529.3,-152.07,3.13,169.87,NONE,left,0,UNDEFINED,left,UNDEFINED,214,north_west,UNDEFINED,south_east,UNDEFINED,UNDEFINED,UNDEFINED,left,638,UNDEFINED,1,north_east,UNDEFINED,UNDEFINED,23
SRC01TE1,FALSE,RIGHT,28,770,811.6,541.4,2,743,679.8,600.7,24.14,2.97,176.34,NONE,left,0,UNDEFINED,left,UNDEFINED,214,north_west,UNDEFINED,south_east,UNDEFINED,UNDEFINED,UNDEFINED,left,638,UNDEFINED,1,north_east,UNDEFINED,UNDEFINED,23
SRC01TE1,FALSE,RIGHT,20,931,831.1,496.8,3,912,783.6,542,43.49,1.35,97.65,NONE,left,0,UNDEFINED,left,UNDEFINED,214,north_west,UNDEFINED,south_east,UNDEFINED,UNDEFINED,UNDEFINED,left,638,UNDEFINED,1,north_east,UNDEFINED,UNDEFINED,23
SRC01TE1,FALSE,RIGHT,24,1019,930.8,511.7,1,996,849.6,537.7,17.72,1.76,115.6,NONE,left,0,UNDEFINED,left,UNDEFINED,585,north_west,UNDEFINED,south_east,UNDEFINED,UNDEFINED,UNDEFINED,left,618,UNDEFINED,1,north_east,UNDEFINED,UNDEFINED,25
SRC01TE1,FALSE,LEFT,18,1189,848.9,530.9,2,1172,906.6,519.1,-168.47,1.21,91.34,NONE,left,0,UNDEFINED,left,UNDEFINED,585,north_west,UNDEFINED,south_east,UNDEFINED,UNDEFINED,UNDEFINED,left,618,UNDEFINED,1,north_east,UNDEFINED,UNDEFINED,25
SRC01TE1,FALSE,LEFT,18,1165,792.2,576.9,1,1148,842.2,547,-149.22,1.2,78.12,NONE,right,0,UNDEFINED,right,UNDEFINED,746,north_west,UNDEFINED,south_east,UNDEFINED,UNDEFINED,UNDEFINED,right,500,UNDEFINED,1,south_west,UNDEFINED,UNDEFINED,26
SRC01TE1,FALSE,RIGHT,21,1300,851.3,555.2,2,1280,772.9,584.8,20.61,1.73,120.57,NONE,right,0,UNDEFINED,right,UNDEFINED,746,north_west,UNDEFINED,south_east,UNDEFINED,UNDEFINED,UNDEFINED,right,500,UNDEFINED,1,south_west,UNDEFINED,UNDEFINED,26
SRC01TE1,FALSE,RIGHT,21,1210,918.7,534.8,1,1190,844.4,530.2,-3.53,1.53,107.35,NONE,right,0,UNDEFINED,right,UNDEFINED,626,north_west,UNDEFINED,south_east,UNDEFINED,UNDEFINED,UNDEFINED,right,850,UNDEFINED,1,south_east,UNDEFINED,UNDEFINED,27
SRC01TE1,FALSE,LEFT,17,1389,844,525.2,2,1373,900,541.2,164.1,1.2,87.33,NONE,right,0,UNDEFINED,right,UNDEFINED,626,north_west,UNDEFINED,south_east,UNDEFINED,UNDEFINED,UNDEFINED,right,850,UNDEFINED,1,south_east,UNDEFINED,UNDEFINED,27
SRC01TE1,FALSE,.,6,420,835.2,510.5,1,415,822.3,511.8,5.74,0.27,32.64,NONE,left,0,UNDEFINED,left,UNDEFINED,336,north_west,UNDEFINED,south_east,UNDEFINED,UNDEFINED,UNDEFINED,left,706,UNDEFINED,1,north_west,UNDEFINED,UNDEFINED,28
SRC01TE1,FALSE,.,22,823,845.2,495.7,1,802,829.5,506.6,34.72,0.39,61.42,NONE,right,0,UNDEFINED,right,UNDEFINED,270,north_west,UNDEFINED,south_east,UNDEFINED,UNDEFINED,UNDEFINED,right,704,UNDEFINED,1,north_east,UNDEFINED,UNDEFINED,29
SRC01TE1,FALSE,.,18,475,840.4,523.1,1,458,836.1,536,71.53,0.28,38.06,NONE,right,0,UNDEFINED,right,UNDEFINED,621,north_west,UNDEFINED,south_east,UNDEFINED,UNDEFINED,UNDEFINED,right,458,UNDEFINED,1,south_west,UNDEFINED,UNDEFINED,30
SRC01TE1,FALSE,LEFT,26,1015,733.9,538.5,2,990,837.8,507.9,-163.62,2.23,116.75,NONE,right,0,UNDEFINED,right,UNDEFINED,621,north_west,UNDEFINED,south_east,UNDEFINED,UNDEFINED,UNDEFINED,right,458,UNDEFINED,1,south_west,UNDEFINED,UNDEFINED,30
SRC01TE1,FALSE,RIGHT,24,1142,841.4,503,3,1119,725.7,542,18.59,2.51,164.54,NONE,right,0,UNDEFINED,right,UNDEFINED,621,north_west,UNDEFINED,south_east,UNDEFINED,UNDEFINED,UNDEFINED,right,458,UNDEFINED,1,south_west,UNDEFINED,UNDEFINED,30
SRC01TE1,FALSE,.,8,368,819.5,529.3,1,361,840.9,529.2,-179.73,0.44,43.64,NONE,left,0,UNDEFINED,left,UNDEFINED,759,north_west,UNDEFINED,south_east,UNDEFINED,UNDEFINED,UNDEFINED,right,636,UNDEFINED,0,north_east,UNDEFINED,UNDEFINED,31
SRC01TE1,FALSE,.,16,444,839.6,552.9,1,429,845.8,558.8,136.54,0.18,29.75,NONE,left,0,UNDEFINED,left,UNDEFINED,507,north_west,UNDEFINED,south_east,UNDEFINED,UNDEFINED,UNDEFINED,right,652,UNDEFINED,0,north_west,UNDEFINED,UNDEFINED,32
SRC01TE1,FALSE,.,16,722,838.5,540.9,2,707,829.6,544.2,20.27,0.2,33.24,NONE,left,0,UNDEFINED,left,UNDEFINED,507,north_west,UNDEFINED,south_east,UNDEFINED,UNDEFINED,UNDEFINED,right,652,UNDEFINED,0,north_west,UNDEFINED,UNDEFINED,32
SRC01TE1,FALSE,.,17,1588,824.3,537,1,1572,841.6,537.2,179.34,0.36,43.37,NONE,right,0,UNDEFINED,right,UNDEFINED,555,north_west,UNDEFINED,south_east,UNDEFINED,UNDEFINED,UNDEFINED,right,997,UNDEFINED,1,north_west,UNDEFINED,UNDEFINED,33
SRC01TE1,FALSE,RIGHT,20,1382,888.9,517.2,1,1363,841.5,520.7,4.21,0.98,82.19,NONE,right,0,UNDEFINED,right,UNDEFINED,539,north_west,UNDEFINED,south_east,UNDEFINED,UNDEFINED,UNDEFINED,right,818,UNDEFINED,1,north_east,UNDEFINED,UNDEFINED,34
SRC01TE1,FALSE,RIGHT,20,1255,888.1,520.3,1,1236,829.5,518.9,-1.37,1.21,90.14,NONE,right,0,UNDEFINED,right,UNDEFINED,472,north_west,UNDEFINED,south_east,UNDEFINED,UNDEFINED,UNDEFINED,right,839,UNDEFINED,1,south_east,UNDEFINED,UNDEFINED,37
SRC01TE1,FALSE,.,10,1022,814.2,504.2,1,1013,798.8,520.5,46.57,0.46,41.79,NONE,right,0,UNDEFINED,right,UNDEFINED,412,north_west,UNDEFINED,south_east,UNDEFINED,UNDEFINED,UNDEFINED,right,643,UNDEFINED,1,north_west,UNDEFINED,UNDEFINED,38
SRC01TE1,FALSE,LEFT,19,1022,815.7,524.7,1,1004,856.7,549,149.42,0.98,70.89,NONE,left,0,UNDEFINED,left,UNDEFINED,475,north_west,UNDEFINED,south_east,UNDEFINED,UNDEFINED,UNDEFINED,left,531,UNDEFINED,1,north_west,UNDEFINED,UNDEFINED,40
SRC01TE1,FALSE,RIGHT,20,1091,891.4,500.6,1,1072,853.3,504.6,5.98,0.79,73.46,NONE,right,0,UNDEFINED,right,UNDEFINED,509,north_west,UNDEFINED,south_east,UNDEFINED,UNDEFINED,UNDEFINED,right,550,UNDEFINED,1,south_east,UNDEFINED,UNDEFINED,41
SRC01TE1,FALSE,.,9,93,813.7,528.1,1,85,833.6,528.5,178.85,0.41,43.2,NONE,left,0,UNDEFINED,left,UNDEFINED,782,north_west,UNDEFINED,south_east,UNDEFINED,UNDEFINED,UNDEFINED,left,516,UNDEFINED,1,south_west,UNDEFINED,UNDEFINED,42
SRC01TE1,FALSE,.,21,908,836.6,535.1,1,888,833.9,544.3,73.6,0.2,49.49,NONE,right,0,UNDEFINED,right,UNDEFINED,293,north_west,UNDEFINED,south_east,UNDEFINED,UNDEFINED,UNDEFINED,right,593,UNDEFINED,1,north_east,UNDEFINED,UNDEFINED,43
SRC01TE1,FALSE,LEFT,35,1136,711.6,538.6,1,1102,843.7,492.7,-160.88,2.88,137.05,NONE,left,0,UNDEFINED,left,UNDEFINED,721,north_west,UNDEFINED,south_east,UNDEFINED,UNDEFINED,UNDEFINED,right,702,UNDEFINED,0,north_west,UNDEFINED,UNDEFINED,44
SRC01TE1,FALSE,RIGHT,27,1289,849.2,479.3,2,1263,716.2,534.6,22.51,2.97,190.05,NONE,left,0,UNDEFINED,left,UNDEFINED,721,north_west,UNDEFINED,south_east,UNDEFINED,UNDEFINED,UNDEFINED,right,702,UNDEFINED,0,north_west,UNDEFINED,UNDEFINED,44
SRC01TE1,FALSE,.,8,1474,853.4,473.9,3,1467,839.8,483.4,34.82,0.34,35.44,NONE,left,0,UNDEFINED,left,UNDEFINED,721,north_west,UNDEFINED,south_east,UNDEFINED,UNDEFINED,UNDEFINED,right,702,UNDEFINED,0,north_west,UNDEFINED,UNDEFINED,44
SRC01TE1,FALSE,RIGHT,21,936,876.9,535.2,1,916,837.4,532,-4.62,0.82,78.07,NONE,left,0,UNDEFINED,left,UNDEFINED,302,north_west,UNDEFINED,south_east,UNDEFINED,UNDEFINED,UNDEFINED,left,622,UNDEFINED,1,south_east,UNDEFINED,UNDEFINED,46
SRC01TE1,FALSE,RIGHT,26,884,939.9,549.4,1,859,832.6,513.3,-18.56,2.33,148.65,NONE,left,0,UNDEFINED,left,UNDEFINED,483,north_west,UNDEFINED,south_east,UNDEFINED,UNDEFINED,UNDEFINED,left,573,UNDEFINED,1,south_east,UNDEFINED,UNDEFINED,47
SRC01TE1,FALSE,LEFT,24,1044,827.2,500.3,2,1021,920.3,551.7,151.17,2.19,136.58,NONE,left,0,UNDEFINED,left,UNDEFINED,483,north_west,UNDEFINED,south_east,UNDEFINED,UNDEFINED,UNDEFINED,left,573,UNDEFINED,1,south_east,UNDEFINED,UNDEFINED,47
SRC01TE1,FALSE,RIGHT,20,821,914.2,488,1,802,850,518.7,25.51,1.47,92.78,NONE,left,0,UNDEFINED,left,UNDEFINED,269,north_west,UNDEFINED,south_east,UNDEFINED,UNDEFINED,UNDEFINED,left,702,UNDEFINED,1,north_east,UNDEFINED,UNDEFINED,48
SRC01TE1,FALSE,LEFT,17,963,843.7,507.6,2,947,893.8,494.7,-165.59,1.07,81.73,NONE,left,0,UNDEFINED,left,UNDEFINED,269,north_west,UNDEFINED,south_east,UNDEFINED,UNDEFINED,UNDEFINED,left,702,UNDEFINED,1,north_east,UNDEFINED,UNDEFINED,48
SRC01TE1,FALSE,RIGHT,14,1002,840.8,508.6,1,989,811.2,511.2,5.01,0.61,47.81,NONE,left,0,UNDEFINED,left,UNDEFINED,365,north_west,UNDEFINED,south_east,UNDEFINED,UNDEFINED,UNDEFINED,left,566,UNDEFINED,1,south_east,UNDEFINED,UNDEFINED,49
SRC01TE1,FALSE,UP,19,992,840.7,497.1,1,974,828.4,522.6,64.2,0.58,50.97,NONE,left,0,UNDEFINED,left,UNDEFINED,447,north_west,UNDEFINED,south_east,UNDEFINED,UNDEFINED,UNDEFINED,left,679,UNDEFINED,1,north_east,UNDEFINED,UNDEFINED,50
SRC01TE1,TRUE,UP,177,1106,836.3,435.6,1,930,827.6,504.1,82.75,1.42,851.43,.,right,0,UNDEFINED,right,UNDEFINED,356,north_west,UNDEFINED,south_east,UNDEFINED,UNDEFINED,UNDEFINED,right,616,UNDEFINED,1,south_west,UNDEFINED,UNDEFINED,51
SRC01TE1,FALSE,RIGHT,17,1017,873.8,517,1,1001,833.1,519.2,3.09,0.84,66.99,NONE,right,0,UNDEFINED,right,UNDEFINED,422,north_west,UNDEFINED,south_east,UNDEFINED,UNDEFINED,UNDEFINED,None,1002,UNDEFINED,0,south_east,UNDEFINED,UNDEFINED,52
SRC01TE1,FALSE,.,7,192,842.9,533.3,1,186,856.6,534.7,174.18,0.28,35.35,NONE,left,0,UNDEFINED,left,UNDEFINED,642,north_west,UNDEFINED,south_east,UNDEFINED,UNDEFINED,UNDEFINED,left,565,UNDEFINED,1,north_east,UNDEFINED,UNDEFINED,54
SRC01TE1,FALSE,.,22,1171,856.3,522.6,1,1150,847.9,538.5,62.1,0.37,61.25,NONE,left,0,UNDEFINED,left,UNDEFINED,587,north_west,UNDEFINED,south_east,UNDEFINED,UNDEFINED,UNDEFINED,left,651,UNDEFINED,1,north_east,UNDEFINED,UNDEFINED,55
SRC01TE1,FALSE,LEFT,21,926,778.5,487.3,1,906,832.8,512.5,155.15,1.23,80.68,NONE,left,0,UNDEFINED,left,UNDEFINED,384,north_west,UNDEFINED,south_east,UNDEFINED,UNDEFINED,UNDEFINED,left,709,UNDEFINED,1,north_west,UNDEFINED,UNDEFINED,57
SRC01TE1,FALSE,RIGHT,21,1127,836.5,504.9,2,1107,765.2,482.4,-17.48,1.54,111.26,NONE,left,0,UNDEFINED,left,UNDEFINED,384,north_west,UNDEFINED,south_east,UNDEFINED,UNDEFINED,UNDEFINED,left,709,UNDEFINED,1,north_west,UNDEFINED,UNDEFINED,57
SRC01TE1,FALSE,RIGHT,22,1217,891.9,552.5,1,1196,815.5,528.8,-17.18,1.65,113.69,NONE,right,0,UNDEFINED,right,UNDEFINED,784,north_west,UNDEFINED,south_east,UNDEFINED,UNDEFINED,UNDEFINED,right,724,UNDEFINED,1,south_east,UNDEFINED,UNDEFINED,59
SRC01TE1,FALSE,LEFT,16,1361,827.6,536,2,1346,868.4,555.4,154.64,0.93,70.36,NONE,right,0,UNDEFINED,right,UNDEFINED,784,north_west,UNDEFINED,south_east,UNDEFINED,UNDEFINED,UNDEFINED,right,724,UNDEFINED,1,south_east,UNDEFINED,UNDEFINED,59
SRC01TE1,FALSE,RIGHT,16,1328,897.4,533.5,1,1313,857.1,541.1,10.65,0.85,65.72,NONE,left,0,UNDEFINED,left,UNDEFINED,648,north_west,UNDEFINED,south_east,UNDEFINED,UNDEFINED,UNDEFINED,None,1002,UNDEFINED,0,north_west,UNDEFINED,UNDEFINED,61
SRC01TE1,FALSE,.,9,1503,859,527.1,2,1495,877.6,533.3,161.6,0.4,40.32,NONE,left,0,UNDEFINED,left,UNDEFINED,648,north_west,UNDEFINED,south_east,UNDEFINED,UNDEFINED,UNDEFINED,None,1002,UNDEFINED,0,north_west,UNDEFINED,UNDEFINED,61
SRC01TE1,FALSE,RIGHT,22,1392,848.6,543.3,1,1371,820.3,554.2,20.99,0.62,70.32,NONE,left,0,UNDEFINED,left,UNDEFINED,781,north_west,UNDEFINED,south_east,UNDEFINED,UNDEFINED,UNDEFINED,left,510,UNDEFINED,1,south_east,UNDEFINED,UNDEFINED,62
SRC01TE1,FALSE,.,9,123,838.5,531.9,1,115,858.3,534.7,171.97,0.41,41.77,NONE,right,0,UNDEFINED,right,UNDEFINED,380,north_west,UNDEFINED,south_east,UNDEFINED,UNDEFINED,UNDEFINED,right,817,UNDEFINED,1,north_west,UNDEFINED,UNDEFINED,65
SRC01TE1,FALSE,LEFT,22,781,759.1,545.3,2,760,829.4,543.3,-178.38,1.45,96.65,NONE,right,0,UNDEFINED,right,UNDEFINED,380,north_west,UNDEFINED,south_east,UNDEFINED,UNDEFINED,UNDEFINED,right,817,UNDEFINED,1,north_west,UNDEFINED,UNDEFINED,65
SRC01TE1,FALSE,RIGHT,22,971,833.9,530.3,3,950,755.2,541.7,8.22,1.64,116.51,NONE,right,0,UNDEFINED,right,UNDEFINED,380,north_west,UNDEFINED,south_east,UNDEFINED,UNDEFINED,UNDEFINED,right,817,UNDEFINED,1,north_west,UNDEFINED,UNDEFINED,65
SRC01TE1,FALSE,UP,17,1338,814.4,509.1,1,1322,835.7,547.7,118.97,0.91,59.81,NONE,right,0,UNDEFINED,right,UNDEFINED,743,north_west,UNDEFINED,south_east,UNDEFINED,UNDEFINED,UNDEFINED,left,861,UNDEFINED,0,north_west,UNDEFINED,UNDEFINED,66
SRC01TE1,FALSE,RIGHT,18,1562,859.8,527,2,1545,807.3,522.6,-4.78,1.09,83.78,NONE,right,0,UNDEFINED,right,UNDEFINED,743,north_west,UNDEFINED,south_east,UNDEFINED,UNDEFINED,UNDEFINED,left,861,UNDEFINED,0,north_west,UNDEFINED,UNDEFINED,66
SRC01TE1,FALSE,RIGHT,22,1232,909.9,492.9,1,1211,844.3,505.6,10.93,1.38,91.65,NONE,right,0,UNDEFINED,right,UNDEFINED,653,north_west,UNDEFINED,south_east,UNDEFINED,UNDEFINED,UNDEFINED,right,697,UNDEFINED,1,north_east,UNDEFINED,UNDEFINED,67
SRC01TE1,FALSE,LEFT,39,1484,838.2,499.2,2,1446,883.9,499.8,179.25,0.94,97,.,right,0,UNDEFINED,right,UNDEFINED,653,north_west,UNDEFINED,south_east,UNDEFINED,UNDEFINED,UNDEFINED,right,697,UNDEFINED,1,north_east,UNDEFINED,UNDEFINED,67
SRC01TE1,FALSE,LEFT,28,1140,697.6,569.9,1,1113,819.1,535,-164.02,2.6,139.72,NONE,right,0,UNDEFINED,right,UNDEFINED,738,north_west,UNDEFINED,south_east,UNDEFINED,UNDEFINED,UNDEFINED,right,474,UNDEFINED,1,south_west,UNDEFINED,UNDEFINED,68
SRC01TE1,FALSE,RIGHT,29,1298,840.3,527.4,2,1270,696.7,578.9,19.69,3.14,196.41,NONE,right,0,UNDEFINED,right,UNDEFINED,738,north_west,UNDEFINED,south_east,UNDEFINED,UNDEFINED,UNDEFINED,right,474,UNDEFINED,1,south_west,UNDEFINED,UNDEFINED,68
SRC01TE1,FALSE,LEFT,19,870,771.3,516.3,1,852,827.1,506.2,-169.76,1.17,84.01,NONE,right,0,UNDEFINED,right,UNDEFINED,479,north_west,UNDEFINED,south_east,UNDEFINED,UNDEFINED,UNDEFINED,right,573,UNDEFINED,1,south_east,UNDEFINED,UNDEFINED,69
SRC01TE1,FALSE,RIGHT,21,1037,836.8,509.9,2,1017,770.1,526.2,13.71,1.42,106.41,NONE,right,0,UNDEFINED,right,UNDEFINED,479,north_west,UNDEFINED,south_east,UNDEFINED,UNDEFINED,UNDEFINED,right,573,UNDEFINED,1,south_east,UNDEFINED,UNDEFINED,69
SRC01TE1,FALSE,.,7,87,867.3,531,1,81,852.1,530.1,-3.38,0.31,37.76,NONE,right,0,UNDEFINED,right,UNDEFINED,695,north_west,UNDEFINED,south_east,UNDEFINED,UNDEFINED,UNDEFINED,right,671,UNDEFINED,1,north_east,UNDEFINED,UNDEFINED,70
SRC01TE1,FALSE,.,6,1269,866.7,536.4,2,1264,875.8,543.9,140.59,0.24,30.18,NONE,right,0,UNDEFINED,right,UNDEFINED,695,north_west,UNDEFINED,south_east,UNDEFINED,UNDEFINED,UNDEFINED,right,671,UNDEFINED,1,north_east,UNDEFINED,UNDEFINED,70
SRC01TE1,FALSE,RIGHT,24,901,928.2,510.1,1,878,858.2,499.7,-8.43,1.46,117.93,NONE,left,0,UNDEFINED,left,UNDEFINED,425,north_west,UNDEFINED,south_east,UNDEFINED,UNDEFINED,UNDEFINED,left,571,UNDEFINED,1,south_east,UNDEFINED,UNDEFINED,71
SRC01TE1,FALSE,LEFT,18,1080,859.4,494.6,2,1063,914.1,511.6,162.77,1.18,92.15,NONE,left,0,UNDEFINED,left,UNDEFINED,425,north_west,UNDEFINED,south_east,UNDEFINED,UNDEFINED,UNDEFINED,left,571,UNDEFINED,1,south_east,UNDEFINED,UNDEFINED,71
SRC01TE1,FALSE,LEFT,24,995,762.1,478.3,1,972,824,519.3,146.54,1.53,75.05,NONE,left,0,UNDEFINED,left,UNDEFINED,455,north_west,UNDEFINED,south_east,UNDEFINED,UNDEFINED,UNDEFINED,right,667,UNDEFINED,0,north_west,UNDEFINED,UNDEFINED,72
SRC01TE1,FALSE,RIGHT,22,1189,833.5,507.1,2,1168,744.5,481.2,-16.19,1.91,143.23,NONE,left,0,UNDEFINED,left,UNDEFINED,455,north_west,UNDEFINED,south_east,UNDEFINED,UNDEFINED,UNDEFINED,right,667,UNDEFINED,0,north_west,UNDEFINED,UNDEFINED,72
SRC01TE1,FALSE,.,20,953,841.6,503.7,1,934,836.3,505.4,17.75,0.11,29.04,.,left,0,UNDEFINED,left,UNDEFINED,305,north_west,UNDEFINED,south_east,UNDEFINED,UNDEFINED,UNDEFINED,left,513,UNDEFINED,1,south_west,UNDEFINED,UNDEFINED,73
SRC01TE1,FALSE,LEFT,24,741,739.2,555.6,1,718,834.6,537.4,-169.22,2,137.89,NONE,left,0,UNDEFINED,left,UNDEFINED,296,north_west,UNDEFINED,south_east,UNDEFINED,UNDEFINED,UNDEFINED,left,489,UNDEFINED,1,south_west,UNDEFINED,UNDEFINED,74
SRC01TE1,FALSE,RIGHT,23,878,838.8,523.4,2,856,739.4,551.2,15.59,2.13,158.1,NONE,left,0,UNDEFINED,left,UNDEFINED,296,north_west,UNDEFINED,south_east,UNDEFINED,UNDEFINED,UNDEFINED,left,489,UNDEFINED,1,south_west,UNDEFINED,UNDEFINED,74
SRC01TE1,FALSE,.,15,446,811,524.6,1,432,827.4,521.9,-170.67,0.34,38.91,NONE,right,0,UNDEFINED,right,UNDEFINED,761,north_west,UNDEFINED,south_east,UNDEFINED,UNDEFINED,UNDEFINED,right,666,UNDEFINED,1,north_east,UNDEFINED,UNDEFINED,76
SRC01TE1,FALSE,RIGHT,21,1222,840.7,490.6,2,1202,808.3,506.3,25.78,0.74,71.73,NONE,right,0,UNDEFINED,right,UNDEFINED,761,north_west,UNDEFINED,south_east,UNDEFINED,UNDEFINED,UNDEFINED,right,666,UNDEFINED,1,north_east,UNDEFINED,UNDEFINED,76
SRC01TE1,FALSE,.,9,1457,809.1,495.6,3,1449,830.9,498.9,171.41,0.45,43.66,NONE,right,0,UNDEFINED,right,UNDEFINED,761,north_west,UNDEFINED,south_east,UNDEFINED,UNDEFINED,UNDEFINED,right,666,UNDEFINED,1,north_east,UNDEFINED,UNDEFINED,76
SRC01TE1,FALSE,LEFT,24,984,750.3,584.4,1,961,841,552.7,-160.81,1.98,113.94,NONE,left,0,UNDEFINED,left,UNDEFINED,571,north_west,UNDEFINED,south_east,UNDEFINED,UNDEFINED,UNDEFINED,left,431,UNDEFINED,1,south_west,UNDEFINED,UNDEFINED,77
SRC01TE1,FALSE,RIGHT,38,1138,827.6,545.1,2,1101,728.3,584.5,21.56,2.2,159.02,.,left,0,UNDEFINED,left,UNDEFINED,571,north_west,UNDEFINED,south_east,UNDEFINED,UNDEFINED,UNDEFINED,left,431,UNDEFINED,1,south_west,UNDEFINED,UNDEFINED,77
SRC01TE1,FALSE,.,18,1417,847.3,510.6,1,1400,834.3,511.7,4.83,0.27,42.09,NONE,right,0,UNDEFINED,right,UNDEFINED,785,north_west,UNDEFINED,south_east,UNDEFINED,UNDEFINED,UNDEFINED,right,611,UNDEFINED,1,south_east,UNDEFINED,UNDEFINED,78
SRC01TE1,FALSE,.,7,845,836.4,491.2,1,839,822.6,495.3,16.51,0.3,34.7,NONE,left,0,UNDEFINED,left,UNDEFINED,211,north_west,UNDEFINED,south_east,UNDEFINED,UNDEFINED,UNDEFINED,left,570,UNDEFINED,1,south_east,UNDEFINED,UNDEFINED,79
SRC01TE1,FALSE,RIGHT,21,936,853.2,518.2,1,916,825.7,530.9,24.74,0.62,71.06,NONE,right,0,UNDEFINED,right,UNDEFINED,275,north_west,UNDEFINED,south_east,UNDEFINED,UNDEFINED,UNDEFINED,right,647,UNDEFINED,1,north_east,UNDEFINED,UNDEFINED,80
SRC01TE1,FALSE,LEFT,29,1182,762.7,554.1,1,1154,847.1,525.4,-161.27,1.84,83.23,NONE,right,0,UNDEFINED,right,UNDEFINED,750,north_west,UNDEFINED,south_east,UNDEFINED,UNDEFINED,UNDEFINED,right,511,UNDEFINED,1,south_west,UNDEFINED,UNDEFINED,81
SRC01TE1,FALSE,RIGHT,26,1330,866.7,512.9,2,1305,756.6,565.5,25.49,2.51,164.08,NONE,right,0,UNDEFINED,right,UNDEFINED,750,north_west,UNDEFINED,south_east,UNDEFINED,UNDEFINED,UNDEFINED,right,511,UNDEFINED,1,south_west,UNDEFINED,UNDEFINED,81
SRC01TE1,FALSE,RIGHT,26,1195,942.7,546.6,1,1170,839.2,526.9,-10.76,2.17,134.1,NONE,left,0,UNDEFINED,left,UNDEFINED,775,north_west,UNDEFINED,south_east,UNDEFINED,UNDEFINED,UNDEFINED,left,472,UNDEFINED,1,south_east,UNDEFINED,UNDEFINED,82
SRC01TE1,FALSE,LEFT,21,1348,854.1,503,2,1328,918.8,539.5,150.65,1.53,104.02,NONE,left,0,UNDEFINED,left,UNDEFINED,775,north_west,UNDEFINED,south_east,UNDEFINED,UNDEFINED,UNDEFINED,left,472,UNDEFINED,1,south_east,UNDEFINED,UNDEFINED,82
SRC01TE1,FALSE,.,12,403,828.4,528.6,1,392,849.6,534.8,163.73,0.46,43.98,NONE,left,0,UNDEFINED,left,UNDEFINED,780,north_west,UNDEFINED,south_east,UNDEFINED,UNDEFINED,UNDEFINED,left,447,UNDEFINED,1,south_west,UNDEFINED,UNDEFINED,83
SRC01TE1,FALSE,LEFT,15,1216,774.5,566.1,2,1202,814.9,543.2,-150.56,0.96,69.7,NONE,left,0,UNDEFINED,left,UNDEFINED,780,north_west,UNDEFINED,south_east,UNDEFINED,UNDEFINED,UNDEFINED,left,447,UNDEFINED,1,south_west,UNDEFINED,UNDEFINED,83
SRC01TE1,FALSE,.,17,119,863.5,522.8,1,103,847.7,523.5,2.53,0.33,39.7,NONE,right,0,UNDEFINED,right,UNDEFINED,722,north_west,UNDEFINED,south_east,UNDEFINED,UNDEFINED,UNDEFINED,right,491,UNDEFINED,1,south_east,UNDEFINED,UNDEFINED,84
SRC01TE1,FALSE,.,7,948,829,531.8,1,942,843.2,533.9,171.61,0.3,34.17,NONE,left,0,UNDEFINED,left,UNDEFINED,513,north_west,UNDEFINED,south_east,UNDEFINED,UNDEFINED,UNDEFINED,left,820,UNDEFINED,1,north_west,UNDEFINED,UNDEFINED,85
SRC01TE1,FALSE,RIGHT,17,1124,877,528.6,2,1108,827.7,536.6,9.2,1.03,75.27,NONE,left,0,UNDEFINED,left,UNDEFINED,513,north_west,UNDEFINED,south_east,UNDEFINED,UNDEFINED,UNDEFINED,left,820,UNDEFINED,1,north_west,UNDEFINED,UNDEFINED,85
SRC01TE1,FALSE,.,7,1401,843.5,529.5,3,1395,855.6,537.4,146.91,0.3,31.98,NONE,left,0,UNDEFINED,left,UNDEFINED,513,north_west,UNDEFINED,south_east,UNDEFINED,UNDEFINED,UNDEFINED,left,820,UNDEFINED,1,north_west,UNDEFINED,UNDEFINED,85
SRC01TE1,FALSE,RIGHT,23,1285,893.9,515.6,1,1263,836.7,550,30.94,1.38,96.19,NONE,right,0,UNDEFINED,right,UNDEFINED,775,north_west,UNDEFINED,south_east,UNDEFINED,UNDEFINED,UNDEFINED,right,677,UNDEFINED,1,north_east,UNDEFINED,UNDEFINED,86
SRC01TE1,FALSE,LEFT,15,1459,826,522.9,2,1445,864.9,513.5,-166.44,0.83,63.96,NONE,right,0,UNDEFINED,right,UNDEFINED,775,north_west,UNDEFINED,south_east,UNDEFINED,UNDEFINED,UNDEFINED,right,677,UNDEFINED,1,north_east,UNDEFINED,UNDEFINED,86
SRC01TE1,FALSE,UP,18,957,835.4,489.5,1,940,837.8,538.3,92.82,1.01,67.36,NONE,right,0,UNDEFINED,right,UNDEFINED,441,north_west,UNDEFINED,south_east,UNDEFINED,UNDEFINED,UNDEFINED,right,715,UNDEFINED,1,north_west,UNDEFINED,UNDEFINED,87
SRC01TE1,FALSE,RIGHT,14,1124,849.9,514,2,1111,812,498.8,-21.81,0.84,64.67,NONE,right,0,UNDEFINED,right,UNDEFINED,441,north_west,UNDEFINED,south_east,UNDEFINED,UNDEFINED,UNDEFINED,right,715,UNDEFINED,1,north_west,UNDEFINED,UNDEFINED,87
SRC01TE1,FALSE,.,16,449,845.3,512.8,1,434,839.6,521.7,57.31,0.22,30.3,NONE,right,0,UNDEFINED,right,UNDEFINED,262,north_west,UNDEFINED,south_east,UNDEFINED,UNDEFINED,UNDEFINED,left,800,UNDEFINED,0,north_west,UNDEFINED,UNDEFINED,89
SRC01TE1,FALSE,LEFT,21,817,802.2,494.4,2,797,844.1,532.1,138.08,1.16,60.67,NONE,right,0,UNDEFINED,right,UNDEFINED,262,north_west,UNDEFINED,south_east,UNDEFINED,UNDEFINED,UNDEFINED,left,800,UNDEFINED,0,north_west,UNDEFINED,UNDEFINED,89
SRC01TE1,FALSE,RIGHT,20,999,861.2,518,3,980,793.1,491.7,-21.08,1.5,104.33,NONE,right,0,UNDEFINED,right,UNDEFINED,262,north_west,UNDEFINED,south_east,UNDEFINED,UNDEFINED,UNDEFINED,left,800,UNDEFINED,0,north_west,UNDEFINED,UNDEFINED,89
SRC01TE1,FALSE,.,19,934,832.2,528.3,1,916,835.6,532.6,128.39,0.11,42.87,NONE,left,0,UNDEFINED,left,UNDEFINED,377,north_west,UNDEFINED,south_east,UNDEFINED,UNDEFINED,UNDEFINED,left,514,UNDEFINED,1,south_west,UNDEFINED,UNDEFINED,95
SRC01TE1,FALSE,.,7,219,822.4,527.6,1,213,835.8,526.7,-176.17,0.28,33.98,NONE,left,0,UNDEFINED,left,UNDEFINED,218,north_west,UNDEFINED,south_east,UNDEFINED,UNDEFINED,UNDEFINED,None,1002,UNDEFINED,0,north_west,UNDEFINED,UNDEFINED,96
SRC01TE1,FALSE,.,20,814,837.5,508,2,795,819.5,521.6,37.02,0.46,49.69,NONE,left,0,UNDEFINED,left,UNDEFINED,218,north_west,UNDEFINED,south_east,UNDEFINED,UNDEFINED,UNDEFINED,None,1002,UNDEFINED,0,north_west,UNDEFINED,UNDEFINED,96
SRC01TE1,FALSE,RIGHT,25,794,926.1,549.6,1,770,839.5,533.9,-10.24,1.81,142.47,NONE,left,0,UNDEFINED,left,UNDEFINED,317,north_west,UNDEFINED,south_east,UNDEFINED,UNDEFINED,UNDEFINED,left,516,UNDEFINED,1,south_east,UNDEFINED,UNDEFINED,97
SRC01TE1,FALSE,LEFT,42,976,847.2,536.5,2,935,908,553.3,164.6,1.3,104.26,.,left,0,UNDEFINED,left,UNDEFINED,317,north_west,UNDEFINED,south_east,UNDEFINED,UNDEFINED,UNDEFINED,left,516,UNDEFINED,1,south_east,UNDEFINED,UNDEFINED,97
SRC01TE1,FALSE,.,17,429,824.9,536.2,1,413,831.4,548.5,117.93,0.29,35.56,NONE,right,0,UNDEFINED,right,UNDEFINED,614,north_west,UNDEFINED,south_east,UNDEFINED,UNDEFINED,UNDEFINED,right,718,UNDEFINED,1,north_west,UNDEFINED,UNDEFINED,99
SRC01TE1,FALSE,RIGHT,20,132,875.8,530.7,1,113,844.7,534.8,7.49,0.65,66.54,NONE,left,0,UNDEFINED,left,UNDEFINED,618,north_west,UNDEFINED,south_east,UNDEFINED,UNDEFINED,UNDEFINED,left,436,UNDEFINED,1,north_east,UNDEFINED,UNDEFINED,100
SRC01TE1,FALSE,LEFT,12,275,836,548.6,2,264,863.5,546,-174.62,0.57,48.44,NONE,left,0,UNDEFINED,left,UNDEFINED,618,north_west,UNDEFINED,south_east,UNDEFINED,UNDEFINED,UNDEFINED,left,436,UNDEFINED,1,north_east,UNDEFINED,UNDEFINED,100
SRC01TE1,FALSE,RIGHT,20,1130,890.2,534.3,3,1111,835.9,559.3,24.65,1.23,79.16,NONE,left,0,UNDEFINED,left,UNDEFINED,618,north_west,UNDEFINED,south_east,UNDEFINED,UNDEFINED,UNDEFINED,left,436,UNDEFINED,1,north_east,UNDEFINED,UNDEFINED,100
SRC01TE1,FALSE,LEFT,17,71,794.9,523.6,1,55,838.6,524.8,178.43,0.9,66.61,NONE,right,0,UNDEFINED,right,UNDEFINED,606,north_west,UNDEFINED,south_east,UNDEFINED,UNDEFINED,UNDEFINED,right,627,UNDEFINED,1,south_east,UNDEFINED,UNDEFINED,101
SRC01TE1,FALSE,RIGHT,15,222,849.5,548.8,2,208,807.2,550.1,1.75,0.87,70.23,NONE,right,0,UNDEFINED,right,UNDEFINED,606,north_west,UNDEFINED,south_east,UNDEFINED,UNDEFINED,UNDEFINED,right,627,UNDEFINED,1,south_east,UNDEFINED,UNDEFINED,101
SRC01TE1,FALSE,RIGHT,30,1009,970,591.2,1,980,838,532.4,-23.95,2.97,196.02,NONE,right,0,UNDEFINED,right,UNDEFINED,617,north_west,UNDEFINED,south_east,UNDEFINED,UNDEFINED,UNDEFINED,right,523,UNDEFINED,1,south_east,UNDEFINED,UNDEFINED,102
SRC01TE1,FALSE,LEFT,24,1180,843.2,511,2,1157,949.7,573.3,149.75,2.54,163.86,NONE,right,0,UNDEFINED,right,UNDEFINED,617,north_west,UNDEFINED,south_east,UNDEFINED,UNDEFINED,UNDEFINED,right,523,UNDEFINED,1,south_east,UNDEFINED,UNDEFINED,102
SRC01TE1,FALSE,DOWN,20,1033,798.2,597.7,1,1014,840.9,548.8,-131.25,1.33,87.82,NONE,left,0,UNDEFINED,left,UNDEFINED,638,north_west,UNDEFINED,south_east,UNDEFINED,UNDEFINED,UNDEFINED,left,486,UNDEFINED,1,south_west,UNDEFINED,UNDEFINED,103
SRC01TE1,FALSE,RIGHT,21,1194,849.8,540.8,2,1174,786.2,593.9,39.74,1.7,117.29,NONE,left,0,UNDEFINED,left,UNDEFINED,638,north_west,UNDEFINED,south_east,UNDEFINED,UNDEFINED,UNDEFINED,left,486,UNDEFINED,1,south_west,UNDEFINED,UNDEFINED,103
SRC01TE1,FALSE,LEFT,19,191,807.2,518.2,1,173,840.3,514.5,-173.64,0.69,69.46,NONE,left,0,UNDEFINED,left,UNDEFINED,659,north_west,UNDEFINED,south_east,UNDEFINED,UNDEFINED,UNDEFINED,left,513,UNDEFINED,1,north_west,UNDEFINED,UNDEFINED,104
SRC01TE1,FALSE,RIGHT,13,370,842.6,502.6,2,358,810.7,510,13.03,0.68,54.57,NONE,left,0,UNDEFINED,left,UNDEFINED,659,north_west,UNDEFINED,south_east,UNDEFINED,UNDEFINED,UNDEFINED,left,513,UNDEFINED,1,north_west,UNDEFINED,UNDEFINED,104
SRC01TE1,FALSE,LEFT,43,1067,683.1,537.5,3,1025,831.5,494.9,-164.02,3.18,182.81,NONE,left,0,UNDEFINED,left,UNDEFINED,659,north_west,UNDEFINED,south_east,UNDEFINED,UNDEFINED,UNDEFINED,left,513,UNDEFINED,1,north_west,UNDEFINED,UNDEFINED,104
SRC01TE1,FALSE,RIGHT,30,1235,806.5,520.7,4,1206,667.6,550.8,12.2,2.92,184.3,NONE,left,0,UNDEFINED,left,UNDEFINED,659,north_west,UNDEFINED,south_east,UNDEFINED,UNDEFINED,UNDEFINED,left,513,UNDEFINED,1,north_west,UNDEFINED,UNDEFINED,104
SRC01TE1,FALSE,RIGHT,23,1307,890,471.5,5,1285,781.6,525.6,26.48,2.5,171.58,.,left,0,UNDEFINED,left,UNDEFINED,659,north_west,UNDEFINED,south_east,UNDEFINED,UNDEFINED,UNDEFINED,left,513,UNDEFINED,1,north_west,UNDEFINED,UNDEFINED,104
SRC01TE1,FALSE,LEFT,24,802,770.7,545.5,1,779,847.8,544.1,-178.96,1.59,95.93,NONE,left,0,UNDEFINED,left,UNDEFINED,249,north_west,UNDEFINED,south_east,UNDEFINED,UNDEFINED,UNDEFINED,left,565,UNDEFINED,1,south_west,UNDEFINED,UNDEFINED,107
SRC01TE1,FALSE,RIGHT,28,948,842.1,542,2,921,780,551.7,8.84,1.3,128.54,.,left,0,UNDEFINED,left,UNDEFINED,249,north_west,UNDEFINED,south_east,UNDEFINED,UNDEFINED,UNDEFINED,left,565,UNDEFINED,1,south_west,UNDEFINED,UNDEFINED,107
SRC01TE1,FALSE,.,15,832,860.9,525.8,1,818,846.1,537,37.06,0.38,34.28,NONE,right,0,UNDEFINED,right,UNDEFINED,259,north_west,UNDEFINED,south_east,UNDEFINED,UNDEFINED,UNDEFINED,right,665,UNDEFINED,1,south_east,UNDEFINED,UNDEFINED,108
SRC01TE1,FALSE,.,5,1312,807.2,510.5,1,1308,799.8,516.3,38.03,0.19,28.63,NONE,right,0,UNDEFINED,right,UNDEFINED,729,north_west,UNDEFINED,south_east,UNDEFINED,UNDEFINED,UNDEFINED,right,531,UNDEFINED,1,south_west,UNDEFINED,UNDEFINED,109
SRC01TE1,FALSE,.,6,384,852,531.9,1,379,840.4,531.5,-1.97,0.24,32.79,NONE,right,0,UNDEFINED,right,UNDEFINED,254,north_west,UNDEFINED,south_east,UNDEFINED,UNDEFINED,UNDEFINED,left,773,UNDEFINED,0,north_west,UNDEFINED,UNDEFINED,111
SRC01TE1,FALSE,.,10,1104,823.4,537.9,2,1095,847.5,539.9,175.27,0.5,44.75,NONE,right,0,UNDEFINED,right,UNDEFINED,254,north_west,UNDEFINED,south_east,UNDEFINED,UNDEFINED,UNDEFINED,left,773,UNDEFINED,0,north_west,UNDEFINED,UNDEFINED,111
SRC01TE1,FALSE,RIGHT,12,156,857.3,529.8,1,145,828.8,533.4,7.18,0.59,49.69,NONE,right,0,UNDEFINED,right,UNDEFINED,245,north_west,UNDEFINED,south_east,UNDEFINED,UNDEFINED,UNDEFINED,right,617,UNDEFINED,1,south_east,UNDEFINED,UNDEFINED,113
SRC01TE1,FALSE,.,7,428,827.1,537.2,2,422,841.2,539.3,171.55,0.29,32.53,NONE,right,0,UNDEFINED,right,UNDEFINED,245,north_west,UNDEFINED,south_east,UNDEFINED,UNDEFINED,UNDEFINED,right,617,UNDEFINED,1,south_east,UNDEFINED,UNDEFINED,113
SRC01TE1,FALSE,RIGHT,23,681,907.3,547.7,3,659,837.3,547.4,-0.24,1.44,111.76,NONE,right,0,UNDEFINED,right,UNDEFINED,245,north_west,UNDEFINED,south_east,UNDEFINED,UNDEFINED,UNDEFINED,right,617,UNDEFINED,1,south_east,UNDEFINED,UNDEFINED,113
SRC01TE1,FALSE,LEFT,17,850,839.9,530.8,4,834,889.6,540.1,169.43,1.04,77.1,NONE,right,0,UNDEFINED,right,UNDEFINED,245,north_west,UNDEFINED,south_east,UNDEFINED,UNDEFINED,UNDEFINED,right,617,UNDEFINED,1,south_east,UNDEFINED,UNDEFINED,113
SRC01TE1,FALSE,.,28,1274,837.5,523.1,1,1247,839.2,529,106.11,0.13,31.55,.,left,0,UNDEFINED,left,UNDEFINED,668,north_west,UNDEFINED,south_east,UNDEFINED,UNDEFINED,UNDEFINED,left,470,UNDEFINED,1,south_east,UNDEFINED,UNDEFINED,114
SRC01TE1,FALSE,RIGHT,18,875,880.8,505.6,1,858,842.5,516.6,15.99,0.82,71.15,NONE,right,0,UNDEFINED,right,UNDEFINED,426,north_west,UNDEFINED,south_east,UNDEFINED,UNDEFINED,UNDEFINED,right,730,UNDEFINED,1,north_east,UNDEFINED,UNDEFINED,115
SRC01TE1,FALSE,LEFT,15,965,827.1,501.6,2,951,869,511,167.38,0.89,66.54,NONE,right,0,UNDEFINED,right,UNDEFINED,426,north_west,UNDEFINED,south_east,UNDEFINED,UNDEFINED,UNDEFINED,right,730,UNDEFINED,1,north_east,UNDEFINED,UNDEFINED,115
SRC01TE1,FALSE,.,14,906,828.8,506.5,1,893,834.2,530.1,102.91,0.5,39.68,NONE,right,0,UNDEFINED,right,UNDEFINED,373,north_west,UNDEFINED,south_east,UNDEFINED,UNDEFINED,UNDEFINED,right,660,UNDEFINED,1,north_west,UNDEFINED,UNDEFINED,116
SRC01TE1,FALSE,RIGHT,11,1132,848.8,521.7,2,1122,820.5,516.6,-10.2,0.59,49.02,NONE,right,0,UNDEFINED,right,UNDEFINED,373,north_west,UNDEFINED,south_east,UNDEFINED,UNDEFINED,UNDEFINED,right,660,UNDEFINED,1,north_west,UNDEFINED,UNDEFINED,116
SRC01TE1,FALSE,RIGHT,16,483,895.8,535.6,1,468,854.7,530.3,-7.33,0.85,67.7,NONE,right,0,UNDEFINED,right,UNDEFINED,663,north_west,UNDEFINED,south_east,UNDEFINED,UNDEFINED,UNDEFINED,right,629,UNDEFINED,1,north_west,UNDEFINED,UNDEFINED,117
SRC01TE1,FALSE,.,7,1383,820.6,527.1,1,1377,833.4,526.8,-178.66,0.26,32.25,NONE,right,0,UNDEFINED,right,UNDEFINED,762,north_west,UNDEFINED,south_east,UNDEFINED,UNDEFINED,UNDEFINED,right,518,UNDEFINED,1,south_west,UNDEFINED,UNDEFINED,118
SRC01TE2,FALSE,.,18,410,824.9,534.1,1,393,834.2,535.6,170.86,0.19,39.96,NONE,left,0,UNDEFINED,left,UNDEFINED,424,north_west,UNDEFINED,south_east,UNDEFINED,UNDEFINED,UNDEFINED,left,504,UNDEFINED,1,south_east,UNDEFINED,UNDEFINED,8
SRC01TE2,FALSE,.,18,1269,824.4,497.4,1,1252,840.8,505.9,152.65,0.38,46.29,NONE,right,0,UNDEFINED,right,UNDEFINED,549,north_west,UNDEFINED,south_east,UNDEFINED,UNDEFINED,UNDEFINED,left,633,UNDEFINED,0,north_east,UNDEFINED,UNDEFINED,12
SRC01TE2,FALSE,LEFT,14,109,804.6,546.5,1,96,838.7,539.2,-167.95,0.72,54.88,NONE,left,0,UNDEFINED,left,UNDEFINED,420,north_west,UNDEFINED,south_east,UNDEFINED,UNDEFINED,UNDEFINED,right,471,UNDEFINED,0,north_west,UNDEFINED,UNDEFINED,13
SRC01TE2,FALSE,.,7,309,826.3,552.3,2,303,811.5,551.6,-2.7,0.31,34.97,NONE,left,0,UNDEFINED,left,UNDEFINED,420,north_west,UNDEFINED,south_east,UNDEFINED,UNDEFINED,UNDEFINED,right,471,UNDEFINED,0,north_west,UNDEFINED,UNDEFINED,13
SRC01TE2,FALSE,RIGHT,14,1049,867.5,494,1,1036,834.9,503.4,16.05,0.7,53.19,NONE,right,0,UNDEFINED,right,UNDEFINED,511,north_west,UNDEFINED,south_east,UNDEFINED,UNDEFINED,UNDEFINED,right,456,UNDEFINED,1,north_west,UNDEFINED,UNDEFINED,18
SRC01TE2,FALSE,LEFT,13,1156,781.4,526.3,1,1144,815.7,514,-160.31,0.75,60.9,NONE,left,0,UNDEFINED,left,UNDEFINED,728,north_west,UNDEFINED,south_east,UNDEFINED,UNDEFINED,UNDEFINED,left,440,UNDEFINED,1,south_west,UNDEFINED,UNDEFINED,21
SRC01TE2,FALSE,RIGHT,20,1307,831.9,497.8,2,1288,762.9,519.7,17.58,1.49,109.09,.,left,0,UNDEFINED,left,UNDEFINED,728,north_west,UNDEFINED,south_east,UNDEFINED,UNDEFINED,UNDEFINED,left,440,UNDEFINED,1,south_west,UNDEFINED,UNDEFINED,21
SRC01TE2,FALSE,RIGHT,22,870,879.9,528.6,1,849,833.1,532.4,4.63,0.97,91.69,NONE,left,0,UNDEFINED,left,UNDEFINED,416,north_west,UNDEFINED,south_east,UNDEFINED,UNDEFINED,UNDEFINED,left,468,UNDEFINED,1,south_east,UNDEFINED,UNDEFINED,22
SRC01TE2,FALSE,LEFT,15,262,823,537.9,1,248,858.8,543,171.92,0.75,58.13,NONE,left,0,UNDEFINED,left,UNDEFINED,669,north_west,UNDEFINED,south_east,UNDEFINED,UNDEFINED,UNDEFINED,left,430,UNDEFINED,1,south_west,UNDEFINED,UNDEFINED,23
SRC01TE2,FALSE,.,9,430,857,540.4,2,422,836,538.3,-5.69,0.44,42.22,NONE,left,0,UNDEFINED,left,UNDEFINED,669,north_west,UNDEFINED,south_east,UNDEFINED,UNDEFINED,UNDEFINED,left,430,UNDEFINED,1,south_west,UNDEFINED,UNDEFINED,23
SRC01TE2,FALSE,.,8,469,839.7,530.3,1,462,820.8,533.6,9.88,0.4,40.91,NONE,right,0,UNDEFINED,right,UNDEFINED,443,north_west,UNDEFINED,south_east,UNDEFINED,UNDEFINED,UNDEFINED,right,724,UNDEFINED,1,south_east,UNDEFINED,UNDEFINED,27
SRC01TE2,FALSE,RIGHT,16,990,891.1,497.6,1,975,854.5,499.3,2.65,0.76,64.64,.,right,0,UNDEFINED,right,UNDEFINED,411,north_west,UNDEFINED,south_east,UNDEFINED,UNDEFINED,UNDEFINED,right,444,UNDEFINED,1,south_west,UNDEFINED,UNDEFINED,32
SRC01TE2,FALSE,LEFT,12,145,833,520.7,1,134,861.1,524.9,171.52,0.59,48.65,NONE,right,0,UNDEFINED,right,UNDEFINED,419,north_west,UNDEFINED,south_east,UNDEFINED,UNDEFINED,UNDEFINED,right,587,UNDEFINED,1,south_east,UNDEFINED,UNDEFINED,33
SRC01TE2,FALSE,RIGHT,13,1026,870.9,531.1,2,1014,837,531.8,1.18,0.7,57.19,NONE,right,0,UNDEFINED,right,UNDEFINED,419,north_west,UNDEFINED,south_east,UNDEFINED,UNDEFINED,UNDEFINED,right,587,UNDEFINED,1,south_east,UNDEFINED,UNDEFINED,33
SRC01TE2,FALSE,LEFT,16,1212,814.4,515,1,1197,855.2,507.8,-170.01,0.85,59.57,NONE,left,0,UNDEFINED,left,UNDEFINED,758,north_west,UNDEFINED,south_east,UNDEFINED,UNDEFINED,UNDEFINED,left,415,UNDEFINED,1,south_west,UNDEFINED,UNDEFINED,38
SRC01TE2,FALSE,.,7,365,833.8,527.1,1,359,848.8,524.3,-169.45,0.31,33.61,NONE,right,0,UNDEFINED,right,UNDEFINED,366,north_west,UNDEFINED,south_east,UNDEFINED,UNDEFINED,UNDEFINED,right,492,UNDEFINED,1,north_west,UNDEFINED,UNDEFINED,40
SRC01TE2,FALSE,.,6,1140,852.7,519.7,1,1135,845,525.6,37.4,0.2,29.54,NONE,right,0,UNDEFINED,right,UNDEFINED,535,north_west,UNDEFINED,south_east,UNDEFINED,UNDEFINED,UNDEFINED,left,641,UNDEFINED,0,north_east,UNDEFINED,UNDEFINED,44
SRC01TE2,FALSE,LEFT,29,961,734.5,572.5,1,933,856.4,534.9,-162.89,2.63,142.6,NONE,left,0,UNDEFINED,left,UNDEFINED,516,north_west,UNDEFINED,south_east,UNDEFINED,UNDEFINED,UNDEFINED,left,427,UNDEFINED,1,south_west,UNDEFINED,UNDEFINED,47
SRC01TE2,FALSE,.,7,437,852,516.2,1,431,837.8,525.2,32.31,0.35,34.77,NONE,right,0,UNDEFINED,right,UNDEFINED,509,north_west,UNDEFINED,south_east,UNDEFINED,UNDEFINED,UNDEFINED,right,445,UNDEFINED,1,south_west,UNDEFINED,UNDEFINED,48
SRC01TE2,FALSE,RIGHT,20,1158,865.8,506,1,1139,829.4,527,29.93,0.87,69.28,NONE,right,0,UNDEFINED,right,UNDEFINED,738,north_west,UNDEFINED,south_east,UNDEFINED,UNDEFINED,UNDEFINED,right,605,UNDEFINED,1,north_west,UNDEFINED,UNDEFINED,49
SRC01TE2,FALSE,.,8,1336,828.5,507.5,2,1329,844.8,506.1,-175.1,0.34,36.17,NONE,right,0,UNDEFINED,right,UNDEFINED,738,north_west,UNDEFINED,south_east,UNDEFINED,UNDEFINED,UNDEFINED,right,605,UNDEFINED,1,north_west,UNDEFINED,UNDEFINED,49
SRC01TE2,FALSE,.,24,868,817.6,525.4,1,845,831.4,532.5,152.82,0.32,41.12,.,right,0,UNDEFINED,right,UNDEFINED,248,north_west,UNDEFINED,south_east,UNDEFINED,UNDEFINED,UNDEFINED,right,487,UNDEFINED,1,south_west,UNDEFINED,UNDEFINED,51
SRC01TE2,FALSE,.,28,492,811.8,514.4,1,465,834.4,517.5,172.21,0.47,87.21,NONE,left,0,UNDEFINED,left,UNDEFINED,387,north_west,UNDEFINED,south_east,UNDEFINED,UNDEFINED,UNDEFINED,right,627,UNDEFINED,0,north_east,UNDEFINED,UNDEFINED,52
SRC01TE2,FALSE,RIGHT,24,857,830.7,511,2,834,788.4,529.9,24.03,0.95,94.87,NONE,left,0,UNDEFINED,left,UNDEFINED,387,north_west,UNDEFINED,south_east,UNDEFINED,UNDEFINED,UNDEFINED,right,627,UNDEFINED,0,north_east,UNDEFINED,UNDEFINED,52
SRC01TE2,FALSE,.,6,423,835.6,517.1,1,418,845.5,518.8,170.28,0.21,30.4,NONE,right,0,UNDEFINED,right,UNDEFINED,717,north_west,UNDEFINED,south_east,UNDEFINED,UNDEFINED,UNDEFINED,right,471,UNDEFINED,1,south_east,UNDEFINED,UNDEFINED,54
SRC01TE2,FALSE,RIGHT,19,1291,875.9,530.4,2,1273,828.4,535,5.52,0.98,75.96,NONE,right,0,UNDEFINED,right,UNDEFINED,717,north_west,UNDEFINED,south_east,UNDEFINED,UNDEFINED,UNDEFINED,right,471,UNDEFINED,1,south_east,UNDEFINED,UNDEFINED,54
SRC01TE2,FALSE,.,28,1304,882.9,489.5,1,1277,870.2,496.8,29.84,0.3,54.02,.,left,0,UNDEFINED,left,UNDEFINED,663,north_west,UNDEFINED,south_east,UNDEFINED,UNDEFINED,UNDEFINED,left,499,UNDEFINED,1,south_east,UNDEFINED,UNDEFINED,55
SRC01TE2,FALSE,.,8,387,809.8,520.1,1,380,829.6,521.6,175.68,0.41,43.53,NONE,left,0,UNDEFINED,left,UNDEFINED,445,north_west,UNDEFINED,south_east,UNDEFINED,UNDEFINED,UNDEFINED,left,421,UNDEFINED,1,south_west,UNDEFINED,UNDEFINED,58
SRC01TE2,FALSE,.,23,966,821,503.8,2,944,800.9,512.7,23.84,0.45,69.69,NONE,left,0,UNDEFINED,left,UNDEFINED,445,north_west,UNDEFINED,south_east,UNDEFINED,UNDEFINED,UNDEFINED,left,421,UNDEFINED,1,south_west,UNDEFINED,UNDEFINED,58
SRC01TE2,FALSE,RIGHT,21,1001,873,489.4,1,981,832.7,500.7,15.63,0.86,77.96,NONE,right,0,UNDEFINED,right,UNDEFINED,451,north_west,UNDEFINED,south_east,UNDEFINED,UNDEFINED,UNDEFINED,right,505,UNDEFINED,1,north_west,UNDEFINED,UNDEFINED,60
SRC01TE2,FALSE,RIGHT,22,1092,884.8,521.1,1,1071,847.2,527.7,9.94,0.79,78.99,NONE,right,0,UNDEFINED,right,UNDEFINED,507,north_west,UNDEFINED,south_east,UNDEFINED,UNDEFINED,UNDEFINED,right,484,UNDEFINED,1,south_east,UNDEFINED,UNDEFINED,61
SRC01TE2,FALSE,.,28,1052,850.8,487.9,1,1025,847.3,499.6,73.3,0.25,45.77,.,right,0,UNDEFINED,right,UNDEFINED,434,north_west,UNDEFINED,south_east,UNDEFINED,UNDEFINED,UNDEFINED,right,482,UNDEFINED,1,south_west,UNDEFINED,UNDEFINED,62
SRC01TE2,FALSE,.,7,381,818.4,526.7,1,375,833.8,524.6,-172.25,0.32,34.02,NONE,left,0,UNDEFINED,left,UNDEFINED,330,north_west,UNDEFINED,south_east,UNDEFINED,UNDEFINED,UNDEFINED,left,465,UNDEFINED,1,south_east,UNDEFINED,UNDEFINED,63
SRC01TE2,FALSE,RIGHT,19,929,853.9,515.3,2,911,820.5,528.8,21.97,0.74,70.72,.,left,0,UNDEFINED,left,UNDEFINED,330,north_west,UNDEFINED,south_east,UNDEFINED,UNDEFINED,UNDEFINED,left,465,UNDEFINED,1,south_east,UNDEFINED,UNDEFINED,63
SRC01TE2,FALSE,RIGHT,22,1249,878.4,518.2,1,1228,830.2,531.8,15.73,1.03,88.35,NONE,right,0,UNDEFINED,right,UNDEFINED,628,north_west,UNDEFINED,south_east,UNDEFINED,UNDEFINED,UNDEFINED,right,538,UNDEFINED,1,north_east,UNDEFINED,UNDEFINED,65
SRC01TE2,FALSE,RIGHT,21,796,863.2,523.8,1,776,836.4,532,16.98,0.58,68.24,NONE,right,0,UNDEFINED,right,UNDEFINED,213,north_west,UNDEFINED,south_east,UNDEFINED,UNDEFINED,UNDEFINED,right,658,UNDEFINED,1,north_east,UNDEFINED,UNDEFINED,66
SRC01TE2,FALSE,.,6,415,820.2,542.6,1,410,831.6,539.3,-163.9,0.24,33.66,NONE,right,0,UNDEFINED,right,UNDEFINED,635,north_west,UNDEFINED,south_east,UNDEFINED,UNDEFINED,UNDEFINED,right,451,UNDEFINED,1,south_east,UNDEFINED,UNDEFINED,68
SRC01TE2,FALSE,RIGHT,22,1156,936.2,514.5,1,1135,841.2,503.3,-6.71,1.97,135.74,NONE,left,0,UNDEFINED,left,UNDEFINED,741,north_west,UNDEFINED,south_east,UNDEFINED,UNDEFINED,UNDEFINED,left,468,UNDEFINED,1,south_east,UNDEFINED,UNDEFINED,69
SRC01TE2,FALSE,RIGHT,15,1258,865.4,520,1,1244,826.7,525.3,7.78,0.81,62.3,NONE,left,0,UNDEFINED,left,UNDEFINED,698,north_west,UNDEFINED,south_east,UNDEFINED,UNDEFINED,UNDEFINED,left,562,UNDEFINED,1,north_west,UNDEFINED,UNDEFINED,70
SRC01TE2,FALSE,RIGHT,24,992,924.8,527.8,1,969,826.3,516.2,-6.7,2.04,138.67,NONE,right,0,UNDEFINED,right,UNDEFINED,547,north_west,UNDEFINED,south_east,UNDEFINED,UNDEFINED,UNDEFINED,right,436,UNDEFINED,1,south_east,UNDEFINED,UNDEFINED,71
SRC01TE2,FALSE,LEFT,22,890,789.9,489.5,1,869,843.1,528.5,143.81,1.36,87.86,NONE,right,0,UNDEFINED,right,UNDEFINED,364,north_west,UNDEFINED,south_east,UNDEFINED,UNDEFINED,UNDEFINED,right,709,UNDEFINED,1,north_west,UNDEFINED,UNDEFINED,74
SRC01TE2,FALSE,RIGHT,24,1106,862.7,508,2,1083,774.4,486,-13.96,1.88,133.58,NONE,right,0,UNDEFINED,right,UNDEFINED,364,north_west,UNDEFINED,south_east,UNDEFINED,UNDEFINED,UNDEFINED,right,709,UNDEFINED,1,north_west,UNDEFINED,UNDEFINED,74
SRC01TE2,FALSE,LEFT,18,897,783.6,548.2,1,880,839.7,530,-162.08,1.22,82.34,NONE,right,0,UNDEFINED,right,UNDEFINED,450,north_west,UNDEFINED,south_east,UNDEFINED,UNDEFINED,UNDEFINED,right,484,UNDEFINED,1,south_west,UNDEFINED,UNDEFINED,75
SRC01TE2,FALSE,RIGHT,21,1037,846.3,514.4,2,1017,775.2,545.5,23.56,1.6,118.56,NONE,right,0,UNDEFINED,right,UNDEFINED,450,north_west,UNDEFINED,south_east,UNDEFINED,UNDEFINED,UNDEFINED,right,484,UNDEFINED,1,south_west,UNDEFINED,UNDEFINED,75
SRC01TE2,FALSE,LEFT,14,399,803.5,523.3,1,386,837.3,522.4,-178.48,0.7,55.11,NONE,right,0,UNDEFINED,right,UNDEFINED,541,north_west,UNDEFINED,south_east,UNDEFINED,UNDEFINED,UNDEFINED,right,695,UNDEFINED,1,north_east,UNDEFINED,UNDEFINED,76
SRC01TE2,FALSE,RIGHT,23,1123,858,500.2,2,1101,819.2,505.5,7.76,0.81,80.76,NONE,right,0,UNDEFINED,right,UNDEFINED,541,north_west,UNDEFINED,south_east,UNDEFINED,UNDEFINED,UNDEFINED,right,695,UNDEFINED,1,north_east,UNDEFINED,UNDEFINED,76
SRC01TE2,FALSE,LEFT,17,1345,808.7,496.1,3,1329,834.2,500.8,169.58,0.53,53.61,NONE,right,0,UNDEFINED,right,UNDEFINED,541,north_west,UNDEFINED,south_east,UNDEFINED,UNDEFINED,UNDEFINED,right,695,UNDEFINED,1,north_east,UNDEFINED,UNDEFINED,76
SRC01TE2,FALSE,LEFT,11,372,819,531.4,1,362,844.7,531.4,180,0.53,45.22,NONE,left,0,UNDEFINED,left,UNDEFINED,244,north_west,UNDEFINED,south_east,UNDEFINED,UNDEFINED,UNDEFINED,left,432,UNDEFINED,1,south_west,UNDEFINED,UNDEFINED,77
SRC01TE2,FALSE,.,11,1176,878.3,501.2,1,1166,863.3,520.1,51.51,0.5,43.39,NONE,left,0,UNDEFINED,left,UNDEFINED,622,north_west,UNDEFINED,south_east,UNDEFINED,UNDEFINED,UNDEFINED,left,622,UNDEFINED,1,north_west,UNDEFINED,UNDEFINED,78
SRC01TE2,FALSE,.,19,467,872.3,512.6,1,449,857.9,521.9,32.8,0.35,49.23,NONE,right,0,UNDEFINED,right,UNDEFINED,796,north_west,UNDEFINED,south_east,UNDEFINED,UNDEFINED,UNDEFINED,right,561,UNDEFINED,1,north_east,UNDEFINED,UNDEFINED,79
SRC01TE2,FALSE,RIGHT,19,925,905,509.1,1,907,851.1,518,9.36,1.13,85.94,NONE,right,0,UNDEFINED,right,UNDEFINED,257,north_west,UNDEFINED,south_east,UNDEFINED,UNDEFINED,UNDEFINED,right,651,UNDEFINED,1,north_east,UNDEFINED,UNDEFINED,81
SRC01TE2,FALSE,RIGHT,18,979,880.6,499.7,1,962,839.3,522.6,28.96,0.97,74.28,NONE,left,0,UNDEFINED,left,UNDEFINED,454,north_west,UNDEFINED,south_east,UNDEFINED,UNDEFINED,UNDEFINED,left,563,UNDEFINED,1,north_east,UNDEFINED,UNDEFINED,82
SRC01TE2,FALSE,.,5,420,835.4,525.2,1,416,825.8,526.5,7.7,0.2,29.67,NONE,left,0,UNDEFINED,left,UNDEFINED,333,north_west,UNDEFINED,south_east,UNDEFINED,UNDEFINED,UNDEFINED,left,726,UNDEFINED,1,north_west,UNDEFINED,UNDEFINED,83
SRC01TE2,FALSE,LEFT,33,881,726.3,460.2,2,849,829.9,518.6,150.64,2.45,119.13,NONE,left,0,UNDEFINED,left,UNDEFINED,333,north_west,UNDEFINED,south_east,UNDEFINED,UNDEFINED,UNDEFINED,left,726,UNDEFINED,1,north_west,UNDEFINED,UNDEFINED,83
SRC01TE2,FALSE,RIGHT,24,1058,838.7,492.7,3,1035,728.7,468.1,-12.58,2.32,171.14,NONE,left,0,UNDEFINED,left,UNDEFINED,333,north_west,UNDEFINED,south_east,UNDEFINED,UNDEFINED,UNDEFINED,left,726,UNDEFINED,1,north_west,UNDEFINED,UNDEFINED,83
SRC01TE2,FALSE,LEFT,20,853,772.2,509.6,1,834,830.2,529.6,161.01,1.26,76.19,NONE,left,0,UNDEFINED,left,UNDEFINED,330,north_west,UNDEFINED,south_east,UNDEFINED,UNDEFINED,UNDEFINED,left,591,UNDEFINED,1,north_west,UNDEFINED,UNDEFINED,84
SRC01TE2,FALSE,RIGHT,40,1042,809.7,503.8,2,1003,765.9,508.9,6.63,0.91,91.45,.,left,0,UNDEFINED,left,UNDEFINED,330,north_west,UNDEFINED,south_east,UNDEFINED,UNDEFINED,UNDEFINED,left,591,UNDEFINED,1,north_west,UNDEFINED,UNDEFINED,84
SRC01TE2,FALSE,.,20,1200,853.8,510.5,1,1181,841.5,521.9,42.77,0.35,36.74,NONE,right,0,UNDEFINED,right,UNDEFINED,681,north_west,UNDEFINED,south_east,UNDEFINED,UNDEFINED,UNDEFINED,right,594,UNDEFINED,1,north_west,UNDEFINED,UNDEFINED,85
SRC01TE2,FALSE,RIGHT,21,1113,890.5,532.4,1,1093,825.5,539.6,6.3,1.35,93.62,NONE,left,0,UNDEFINED,left,UNDEFINED,470,north_west,UNDEFINED,south_east,UNDEFINED,UNDEFINED,UNDEFINED,left,566,UNDEFINED,1,south_east,UNDEFINED,UNDEFINED,86
SRC01TE2,FALSE,RIGHT,14,61,877.9,528.3,1,48,844.1,529.7,2.37,0.7,55.78,NONE,right,0,UNDEFINED,right,UNDEFINED,243,north_west,UNDEFINED,south_east,UNDEFINED,UNDEFINED,UNDEFINED,left,734,UNDEFINED,0,north_east,UNDEFINED,UNDEFINED,87
SRC01TE2,FALSE,.,6,964,864.5,503,2,959,852.9,509.7,29.96,0.28,31.67,NONE,right,0,UNDEFINED,right,UNDEFINED,243,north_west,UNDEFINED,south_east,UNDEFINED,UNDEFINED,UNDEFINED,left,734,UNDEFINED,0,north_east,UNDEFINED,UNDEFINED,87
SRC01TE2,FALSE,.,9,1335,868.8,520.9,1,1327,855.8,532.7,42.17,0.36,35.35,NONE,left,0,UNDEFINED,left,UNDEFINED,758,north_west,UNDEFINED,south_east,UNDEFINED,UNDEFINED,UNDEFINED,left,532,UNDEFINED,1,north_east,UNDEFINED,UNDEFINED,88
SRC01TE2,FALSE,LEFT,14,819,802.9,539.5,1,806,842.3,530.6,-167.31,0.83,63.82,NONE,right,0,UNDEFINED,right,UNDEFINED,270,north_west,UNDEFINED,south_east,UNDEFINED,UNDEFINED,UNDEFINED,right,637,UNDEFINED,1,south_west,UNDEFINED,UNDEFINED,89
SRC01TE2,FALSE,RIGHT,18,960,852,528.2,2,943,798.1,547.3,19.46,1.18,89.88,NONE,right,0,UNDEFINED,right,UNDEFINED,270,north_west,UNDEFINED,south_east,UNDEFINED,UNDEFINED,UNDEFINED,right,637,UNDEFINED,1,south_west,UNDEFINED,UNDEFINED,89
SRC01TE2,FALSE,RIGHT,25,1212,950,522.3,1,1188,833.9,508.5,-6.76,2.41,170.43,NONE,right,0,UNDEFINED,right,UNDEFINED,759,north_west,UNDEFINED,south_east,UNDEFINED,UNDEFINED,UNDEFINED,right,654,UNDEFINED,1,south_east,UNDEFINED,UNDEFINED,90
SRC01TE2,FALSE,LEFT,23,1396,839.6,509.5,2,1374,923.4,528.4,167.33,1.77,111.78,NONE,right,0,UNDEFINED,right,UNDEFINED,759,north_west,UNDEFINED,south_east,UNDEFINED,UNDEFINED,UNDEFINED,right,654,UNDEFINED,1,south_east,UNDEFINED,UNDEFINED,90
SRC01TE2,FALSE,.,6,479,826.8,522,1,474,839.8,525.1,166.61,0.28,34.63,NONE,left,0,UNDEFINED,left,UNDEFINED,388,north_west,UNDEFINED,south_east,UNDEFINED,UNDEFINED,UNDEFINED,left,559,UNDEFINED,1,south_west,UNDEFINED,UNDEFINED,92
SRC01TE2,FALSE,RIGHT,19,937,869.5,523.3,2,919,840.3,526.7,6.63,0.61,56.48,NONE,left,0,UNDEFINED,left,UNDEFINED,388,north_west,UNDEFINED,south_east,UNDEFINED,UNDEFINED,UNDEFINED,left,559,UNDEFINED,1,south_west,UNDEFINED,UNDEFINED,92
SRC01TE2,FALSE,RIGHT,20,991,879.3,520.4,1,972,845.9,530.6,16.95,0.72,69.52,NONE,right,0,UNDEFINED,right,UNDEFINED,522,north_west,UNDEFINED,south_east,UNDEFINED,UNDEFINED,UNDEFINED,right,546,UNDEFINED,1,south_east,UNDEFINED,UNDEFINED,93
SRC01TE2,FALSE,.,8,1147,846.7,525.9,2,1140,863.8,526.6,177.66,0.35,35.85,NONE,right,0,UNDEFINED,right,UNDEFINED,522,north_west,UNDEFINED,south_east,UNDEFINED,UNDEFINED,UNDEFINED,right,546,UNDEFINED,1,south_east,UNDEFINED,UNDEFINED,93
SRC01TE2,FALSE,.,18,498,863.5,526.8,1,481,842.8,526.6,-0.55,0.43,49.69,NONE,right,0,UNDEFINED,right,UNDEFINED,454,north_west,UNDEFINED,south_east,UNDEFINED,UNDEFINED,UNDEFINED,right,550,UNDEFINED,1,south_east,UNDEFINED,UNDEFINED,94
SRC01TE2,FALSE,RIGHT,21,838,940.9,539.9,2,818,860.4,525.6,-10.05,1.68,117.46,NONE,right,0,UNDEFINED,right,UNDEFINED,454,north_west,UNDEFINED,south_east,UNDEFINED,UNDEFINED,UNDEFINED,right,550,UNDEFINED,1,south_east,UNDEFINED,UNDEFINED,94
SRC01TE2,FALSE,LEFT,21,993,857.6,522.9,3,973,929.7,546,162.29,1.56,100.64,NONE,right,0,UNDEFINED,right,UNDEFINED,454,north_west,UNDEFINED,south_east,UNDEFINED,UNDEFINED,UNDEFINED,right,550,UNDEFINED,1,south_east,UNDEFINED,UNDEFINED,94
SRC01TE2,FALSE,.,8,1055,839.4,514,4,1048,852,519,158.4,0.28,38.5,NONE,right,0,UNDEFINED,right,UNDEFINED,454,north_west,UNDEFINED,south_east,UNDEFINED,UNDEFINED,UNDEFINED,right,550,UNDEFINED,1,south_east,UNDEFINED,UNDEFINED,94
SRC01TE2,FALSE,.,7,449,827,525.5,1,443,843.1,528,171.19,0.34,37.1,NONE,left,0,UNDEFINED,left,UNDEFINED,796,north_west,UNDEFINED,south_east,UNDEFINED,UNDEFINED,UNDEFINED,right,622,UNDEFINED,0,north_west,UNDEFINED,UNDEFINED,95
SRC01TE2,FALSE,RIGHT,20,1398,870.5,526.3,2,1379,840.1,531.7,10.05,0.64,68.73,NONE,left,0,UNDEFINED,left,UNDEFINED,796,north_west,UNDEFINED,south_east,UNDEFINED,UNDEFINED,UNDEFINED,right,622,UNDEFINED,0,north_west,UNDEFINED,UNDEFINED,95
SRC01TE2,FALSE,.,17,152,868.5,521.9,1,136,847.1,528.8,17.84,0.46,49.65,NONE,left,0,UNDEFINED,left,UNDEFINED,406,north_west,UNDEFINED,south_east,UNDEFINED,UNDEFINED,UNDEFINED,left,541,UNDEFINED,1,south_west,UNDEFINED,UNDEFINED,97
SRC01TE2,FALSE,RIGHT,28,1090,978.6,577.8,1,1063,851,525.2,-22.34,2.84,202.61,NONE,right,0,UNDEFINED,right,UNDEFINED,646,north_west,UNDEFINED,south_east,UNDEFINED,UNDEFINED,UNDEFINED,right,598,UNDEFINED,1,south_east,UNDEFINED,UNDEFINED,98
SRC01TE2,FALSE,LEFT,25,1251,859.3,527.6,2,1227,953.1,571.9,154.79,2.14,127.41,NONE,right,0,UNDEFINED,right,UNDEFINED,646,north_west,UNDEFINED,south_east,UNDEFINED,UNDEFINED,UNDEFINED,right,598,UNDEFINED,1,south_east,UNDEFINED,UNDEFINED,98
SRC01TE2,FALSE,.,7,200,846,520.1,1,194,831.2,519.2,-3.47,0.31,33.92,NONE,left,0,UNDEFINED,left,UNDEFINED,721,north_west,UNDEFINED,south_east,UNDEFINED,UNDEFINED,UNDEFINED,left,497,UNDEFINED,1,north_east,UNDEFINED,UNDEFINED,99
SRC01TE2,FALSE,.,31,1393,847.5,507.7,1,1363,843,519.9,69.72,0.27,52.65,.,left,0,UNDEFINED,left,UNDEFINED,741,north_west,UNDEFINED,south_east,UNDEFINED,UNDEFINED,UNDEFINED,left,519,UNDEFINED,1,north_east,UNDEFINED,UNDEFINED,100
SRC01TE2,FALSE,LEFT,14,519,811.9,520.2,1,506,846.8,524.3,173.31,0.72,57.53,NONE,left,0,UNDEFINED,left,UNDEFINED,342,north_west,UNDEFINED,south_east,UNDEFINED,UNDEFINED,UNDEFINED,left,532,UNDEFINED,1,north_west,UNDEFINED,UNDEFINED,102
SRC01TE2,FALSE,.,20,892,833.2,500.7,2,873,827.5,517.4,71.12,0.36,47.9,NONE,left,0,UNDEFINED,left,UNDEFINED,342,north_west,UNDEFINED,south_east,UNDEFINED,UNDEFINED,UNDEFINED,left,532,UNDEFINED,1,north_west,UNDEFINED,UNDEFINED,102
SRC01TE2,FALSE,LEFT,22,1131,767.4,487.2,1,1110,849.6,524.2,155.81,1.86,120.52,NONE,right,0,UNDEFINED,right,UNDEFINED,649,north_west,UNDEFINED,south_east,UNDEFINED,UNDEFINED,UNDEFINED,right,551,UNDEFINED,1,north_west,UNDEFINED,UNDEFINED,103
SRC01TE2,FALSE,RIGHT,24,1305,853.9,507.4,2,1282,761.5,489.1,-11.18,1.94,148.87,NONE,right,0,UNDEFINED,right,UNDEFINED,649,north_west,UNDEFINED,south_east,UNDEFINED,UNDEFINED,UNDEFINED,right,551,UNDEFINED,1,north_west,UNDEFINED,UNDEFINED,103
SRC01TE2,FALSE,.,11,41,815.7,522.6,1,31,806.8,524.9,14.46,0.19,42.13,NONE,right,0,UNDEFINED,right,UNDEFINED,799,north_west,UNDEFINED,south_east,UNDEFINED,UNDEFINED,UNDEFINED,right,585,UNDEFINED,1,south_west,UNDEFINED,UNDEFINED,104
SRC01TE2,FALSE,RIGHT,18,382,841.7,526.4,2,365,813.5,529.6,6.46,0.59,55.06,NONE,right,0,UNDEFINED,right,UNDEFINED,799,north_west,UNDEFINED,south_east,UNDEFINED,UNDEFINED,UNDEFINED,right,585,UNDEFINED,1,south_west,UNDEFINED,UNDEFINED,104
SRC01TE2,FALSE,LEFT,17,1095,769,502.9,3,1079,819.6,530.8,151.18,1.19,83.41,NONE,right,0,UNDEFINED,right,UNDEFINED,799,north_west,UNDEFINED,south_east,UNDEFINED,UNDEFINED,UNDEFINED,right,585,UNDEFINED,1,south_west,UNDEFINED,UNDEFINED,104
SRC01TE2,FALSE,RIGHT,22,1315,837.5,548.5,4,1294,756.4,521.6,-18.3,1.76,122.79,NONE,right,0,UNDEFINED,right,UNDEFINED,799,north_west,UNDEFINED,south_east,UNDEFINED,UNDEFINED,UNDEFINED,right,585,UNDEFINED,1,south_west,UNDEFINED,UNDEFINED,104
SRC01TE2,FALSE,LEFT,23,720,779.7,476.6,1,698,851.3,514.8,151.97,1.67,89.88,NONE,left,0,UNDEFINED,left,UNDEFINED,211,north_west,UNDEFINED,south_east,UNDEFINED,UNDEFINED,UNDEFINED,left,605,UNDEFINED,1,north_west,UNDEFINED,UNDEFINED,105
SRC01TE2,FALSE,RIGHT,20,898,825.3,475.8,2,879,760.3,481.8,5.26,1.35,85.92,NONE,left,0,UNDEFINED,left,UNDEFINED,211,north_west,UNDEFINED,south_east,UNDEFINED,UNDEFINED,UNDEFINED,left,605,UNDEFINED,1,north_west,UNDEFINED,UNDEFINED,105
SRC01TE2,FALSE,LEFT,31,905,748,576.8,1,875,859.8,526.1,-155.67,2.53,118.77,NONE,right,0,UNDEFINED,right,UNDEFINED,468,north_west,UNDEFINED,south_east,UNDEFINED,UNDEFINED,UNDEFINED,right,537,UNDEFINED,1,south_west,UNDEFINED,UNDEFINED,107
SRC01TE2,FALSE,RIGHT,27,1050,873.2,509.6,2,1024,749,564.2,23.69,2.79,185.56,NONE,right,0,UNDEFINED,right,UNDEFINED,468,north_west,UNDEFINED,south_east,UNDEFINED,UNDEFINED,UNDEFINED,right,537,UNDEFINED,1,south_west,UNDEFINED,UNDEFINED,107
SRC01TE2,FALSE,.,11,999,815.6,526.3,1,989,830.2,541.1,134.7,0.43,39.61,NONE,left,0,UNDEFINED,left,UNDEFINED,535,north_west,UNDEFINED,south_east,UNDEFINED,UNDEFINED,UNDEFINED,left,476,UNDEFINED,1,north_west,UNDEFINED,UNDEFINED,110
SRC01TE2,FALSE,.,7,428,822.3,528.8,1,422,836.2,533.6,160.99,0.3,34.26,NONE,right,0,UNDEFINED,right,UNDEFINED,510,north_west,UNDEFINED,south_east,UNDEFINED,UNDEFINED,UNDEFINED,right,554,UNDEFINED,1,north_east,UNDEFINED,UNDEFINED,111
SRC01TE2,FALSE,RIGHT,14,1186,881.8,514.2,2,1173,847.7,523.9,15.85,0.73,60.48,.,right,0,UNDEFINED,right,UNDEFINED,510,north_west,UNDEFINED,south_east,UNDEFINED,UNDEFINED,UNDEFINED,right,554,UNDEFINED,1,north_east,UNDEFINED,UNDEFINED,111
SRC01TE2,FALSE,.,16,449,821.9,535.2,1,434,832.5,541.1,150.98,0.25,34.56,NONE,right,0,UNDEFINED,right,UNDEFINED,257,north_west,UNDEFINED,south_east,UNDEFINED,UNDEFINED,UNDEFINED,right,674,UNDEFINED,1,north_east,UNDEFINED,UNDEFINED,112
SRC01TE2,FALSE,UP,14,119,850.9,477.6,1,106,846.4,521.7,84.16,0.91,68.78,NONE,right,0,UNDEFINED,right,UNDEFINED,282,north_west,UNDEFINED,south_east,UNDEFINED,UNDEFINED,UNDEFINED,right,593,UNDEFINED,1,south_west,UNDEFINED,UNDEFINED,115
SRC01TE2,FALSE,RIGHT,16,983,905.9,520.2,1,968,854.4,526.7,7.18,1.07,79.24,NONE,left,0,UNDEFINED,left,UNDEFINED,537,north_west,UNDEFINED,south_east,UNDEFINED,UNDEFINED,UNDEFINED,left,513,UNDEFINED,1,north_east,UNDEFINED,UNDEFINED,118
SRC01TE2,FALSE,LEFT,24,1081,817.9,508.2,2,1058,893.6,515.7,174.35,1.57,128.29,NONE,left,0,UNDEFINED,left,UNDEFINED,537,north_west,UNDEFINED,south_east,UNDEFINED,UNDEFINED,UNDEFINED,left,513,UNDEFINED,1,north_east,UNDEFINED,UNDEFINED,118
SRC01TE2,TRUE,UP,162,561,859.2,487.3,1,400,830.2,554.6,66.62,1.51,847.58,BEFORE,left,0,UNDEFINED,left,UNDEFINED,762,north_west,UNDEFINED,south_east,UNDEFINED,UNDEFINED,UNDEFINED,left,586,UNDEFINED,1,south_west,UNDEFINED,UNDEFINED,119
SRC01TE2,FALSE,RIGHT,20,886,881.7,530.9,2,867,851.6,529.9,-1.9,0.62,60.02,NONE,left,0,UNDEFINED,left,UNDEFINED,762,north_west,UNDEFINED,south_east,UNDEFINED,UNDEFINED,UNDEFINED,left,586,UNDEFINED,1,south_west,UNDEFINED,UNDEFINED,119
SRC01TE2,FALSE,LEFT,18,1034,838.4,524.4,3,1017,873.1,529.8,171.17,0.72,68.31,NONE,left,0,UNDEFINED,left,UNDEFINED,762,north_west,UNDEFINED,south_east,UNDEFINED,UNDEFINED,UNDEFINED,left,586,UNDEFINED,1,south_west,UNDEFINED,UNDEFINED,119
SRC01TE2,FALSE,.,18,1419,867.6,523.8,4,1402,846.2,534.1,25.66,0.49,53.09,NONE,left,0,UNDEFINED,left,UNDEFINED,762,north_west,UNDEFINED,south_east,UNDEFINED,UNDEFINED,UNDEFINED,left,586,UNDEFINED,1,south_west,UNDEFINED,UNDEFINED,119
SRC02TE1,TRUE,DOWN,71,1067,.,.,1,997,834.1,524.5,.,.,1025.64,.,right,0,UNDEFINED,right,UNDEFINED,410,north_east,UNDEFINED,south_west,UNDEFINED,UNDEFINED,UNDEFINED,right,522,UNDEFINED,1,north_west,UNDEFINED,UNDEFINED,60
SRC02TE1,FALSE,RIGHT,33,948,946.4,578.4,1,916,837.2,510.8,-31.68,2.64,186.97,NONE,left,0,UNDEFINED,left,UNDEFINED,434,north_east,UNDEFINED,south_west,UNDEFINED,UNDEFINED,UNDEFINED,left,690,UNDEFINED,1,south_east,UNDEFINED,UNDEFINED,70
SRC02TE1,FALSE,LEFT,29,1105,845.6,494.8,2,1077,945.2,573.4,141.81,2.61,161.5,NONE,left,0,UNDEFINED,left,UNDEFINED,434,north_east,UNDEFINED,south_west,UNDEFINED,UNDEFINED,UNDEFINED,left,690,UNDEFINED,1,south_east,UNDEFINED,UNDEFINED,70
SRC02TE1,FALSE,.,6,429,852.2,517,1,424,841.8,519.6,14.01,0.22,31.78,NONE,right,0,UNDEFINED,right,UNDEFINED,219,north_east,UNDEFINED,south_west,UNDEFINED,UNDEFINED,UNDEFINED,right,618,UNDEFINED,1,south_east,UNDEFINED,UNDEFINED,84
SRC02TE1,FALSE,.,7,1182,860,500.8,1,1176,847.9,497.6,-14.78,0.26,33.08,NONE,right,0,UNDEFINED,right,UNDEFINED,396,north_east,UNDEFINED,south_west,UNDEFINED,UNDEFINED,UNDEFINED,right,807,UNDEFINED,1,north_east,UNDEFINED,UNDEFINED,100
SRC02TE1,FALSE,.,32,1084,839.3,499.2,1,1053,834.3,499.6,4.56,0.1,36.82,.,right,0,UNDEFINED,right,UNDEFINED,370,north_east,UNDEFINED,south_west,UNDEFINED,UNDEFINED,UNDEFINED,right,568,UNDEFINED,1,south_east,UNDEFINED,UNDEFINED,106
SRC02TE1,FALSE,.,8,1151,851.3,531.8,1,1144,834.7,527.9,-13.19,0.35,38.28,NONE,right,0,UNDEFINED,right,UNDEFINED,532,north_east,UNDEFINED,south_west,UNDEFINED,UNDEFINED,UNDEFINED,right,564,UNDEFINED,1,south_west,UNDEFINED,UNDEFINED,109
SRC02TE1,TRUE,RIGHT,119,1515,859.5,500.9,1,1397,827.3,517.7,27.5,0.75,995.02,BEFORE,left,0,UNDEFINED,left,UNDEFINED,732,north_east,UNDEFINED,south_west,UNDEFINED,UNDEFINED,UNDEFINED,left,681,UNDEFINED,1,south_west,UNDEFINED,UNDEFINED,110
SRC02TE1,FALSE,RIGHT,24,1188,918,558.1,1,1165,822,506.2,-28.32,2.25,142.83,NONE,left,0,UNDEFINED,left,UNDEFINED,712,north_east,UNDEFINED,south_west,UNDEFINED,UNDEFINED,UNDEFINED,left,743,UNDEFINED,1,south_east,UNDEFINED,UNDEFINED,111
SRC02TE1,FALSE,LEFT,22,1374,838.5,499.4,2,1353,908.4,561,138.7,1.92,133.48,NONE,left,0,UNDEFINED,left,UNDEFINED,712,north_east,UNDEFINED,south_west,UNDEFINED,UNDEFINED,UNDEFINED,left,743,UNDEFINED,1,south_east,UNDEFINED,UNDEFINED,111
SRC02TE1,FALSE,DOWN,31,1161,609.1,1262.1,1,1131,842,513.5,-107.67,15.42,1011.58,.,left,0,UNDEFINED,left,UNDEFINED,518,north_east,UNDEFINED,south_west,UNDEFINED,UNDEFINED,UNDEFINED,left,521,UNDEFINED,1,south_east,UNDEFINED,UNDEFINED,112
SRC02TE1,FALSE,.,9,1284,845.8,536.4,1,1276,826.2,530.2,-17.52,0.42,43.82,NONE,right,0,UNDEFINED,right,UNDEFINED,665,north_east,UNDEFINED,south_west,UNDEFINED,UNDEFINED,UNDEFINED,right,554,UNDEFINED,1,south_west,UNDEFINED,UNDEFINED,115
SRC02TE2,TRUE,DOWN,32,1019,.,.,1,988,808.8,575.3,.,.,972.46,.,left,0,UNDEFINED,left,UNDEFINED,275,north_east,UNDEFINED,south_west,UNDEFINED,UNDEFINED,UNDEFINED,left,610,UNDEFINED,1,south_east,UNDEFINED,UNDEFINED,12
SRC02TE2,TRUE,RIGHT,163,1625,850.7,491.1,1,1463,823.9,511.7,37.49,0.7,1153.37,BEFORE,left,0,UNDEFINED,left,UNDEFINED,788,north_east,UNDEFINED,south_west,UNDEFINED,UNDEFINED,UNDEFINED,right,729,UNDEFINED,0,north_west,UNDEFINED,UNDEFINED,16
SRC02TE2,TRUE,UP,132,1409,828.5,454.7,1,1278,802.4,531.9,71.28,1.68,1111.49,BEFORE,right,0,UNDEFINED,right,UNDEFINED,610,north_east,UNDEFINED,south_west,UNDEFINED,UNDEFINED,UNDEFINED,right,715,UNDEFINED,1,north_west,UNDEFINED,UNDEFINED,17
SRC02TE2,TRUE,DOWN,38,1630,.,.,1,1593,830.7,522,.,.,584.7,.,left,0,UNDEFINED,left,UNDEFINED,739,north_east,UNDEFINED,south_west,UNDEFINED,UNDEFINED,UNDEFINED,right,754,UNDEFINED,0,south_west,UNDEFINED,UNDEFINED,19
SRC02TE2,TRUE,UP,131,1544,867.6,476.6,1,1414,834.1,534.3,59.78,1.37,910.9,BEFORE,left,0,UNDEFINED,left,UNDEFINED,687,north_east,UNDEFINED,south_west,UNDEFINED,UNDEFINED,UNDEFINED,left,886,UNDEFINED,1,north_west,UNDEFINED,UNDEFINED,22
SRC02TE2,FALSE,.,29,1194,842,497.2,1,1166,839,500.1,43.97,0.09,43.19,.,right,0,UNDEFINED,right,UNDEFINED,567,north_east,UNDEFINED,south_west,UNDEFINED,UNDEFINED,UNDEFINED,right,505,UNDEFINED,1,south_west,UNDEFINED,UNDEFINED,26
SRC02TE2,TRUE,DOWN,89,1137,811.1,747.4,1,1049,844.4,521.5,-98.44,4.67,1044.57,.,left,0,UNDEFINED,left,UNDEFINED,351,north_east,UNDEFINED,south_west,UNDEFINED,UNDEFINED,UNDEFINED,left,652,UNDEFINED,1,north_west,UNDEFINED,UNDEFINED,28
SRC02TE2,FALSE,.,28,987,836,502.4,1,960,825.4,500.6,-9.62,0.22,41.47,.,right,0,UNDEFINED,right,UNDEFINED,305,north_east,UNDEFINED,south_west,UNDEFINED,UNDEFINED,UNDEFINED,right,547,UNDEFINED,1,south_west,UNDEFINED,UNDEFINED,32
SRC02TE2,FALSE,.,7,1041,850.9,513.3,1,1035,838.7,513.1,-0.94,0.25,31.89,NONE,right,0,UNDEFINED,right,UNDEFINED,411,north_east,UNDEFINED,south_west,UNDEFINED,UNDEFINED,UNDEFINED,right,546,UNDEFINED,1,south_west,UNDEFINED,UNDEFINED,33
SRC02TE2,FALSE,DOWN,16,859,767.6,1093.3,1,844,841.2,528,-97.55,11.38,622,.,left,0,UNDEFINED,left,UNDEFINED,200,north_east,UNDEFINED,south_west,UNDEFINED,UNDEFINED,UNDEFINED,left,516,UNDEFINED,1,north_east,UNDEFINED,UNDEFINED,36
SRC02TE2,TRUE,DOWN,127,1481,839.3,703.8,1,1355,823.1,539.9,-84.32,3.37,1397.56,.,left,0,UNDEFINED,left,UNDEFINED,706,north_east,UNDEFINED,south_west,UNDEFINED,UNDEFINED,UNDEFINED,left,640,UNDEFINED,1,south_east,UNDEFINED,UNDEFINED,39
SRC02TE2,TRUE,DOWN,33,988,472.6,1502.6,1,956,829.6,508.2,-110.41,20.19,873.53,.,right,0,UNDEFINED,right,UNDEFINED,275,north_east,UNDEFINED,south_west,UNDEFINED,UNDEFINED,UNDEFINED,right,577,UNDEFINED,1,north_west,UNDEFINED,UNDEFINED,45
SRC02TE2,TRUE,DOWN,51,1133,.,.,1,1083,850.2,513.9,.,.,976.33,.,right,0,UNDEFINED,right,UNDEFINED,448,north_east,UNDEFINED,south_west,UNDEFINED,UNDEFINED,UNDEFINED,right,552,UNDEFINED,1,south_east,UNDEFINED,UNDEFINED,51
SRC02TE2,FALSE,DOWN,29,1466,465.8,1491.7,1,1438,820.8,522.2,-110.78,19.75,1201.07,.,right,0,UNDEFINED,right,UNDEFINED,796,north_east,UNDEFINED,south_west,UNDEFINED,UNDEFINED,UNDEFINED,right,533,UNDEFINED,1,north_west,UNDEFINED,UNDEFINED,52
SRC02TE2,TRUE,.,141,1248,848.8,499,1,1108,843.5,514.8,71.42,0.34,1288.93,.,right,0,UNDEFINED,right,UNDEFINED,716,north_east,UNDEFINED,south_west,UNDEFINED,UNDEFINED,UNDEFINED,right,397,UNDEFINED,1,north_east,UNDEFINED,UNDEFINED,54
SRC02TE2,FALSE,DOWN,29,1160,758.4,1070.7,1,1132,816.1,550.5,-96.44,10.46,691.09,.,right,0,UNDEFINED,right,UNDEFINED,498,north_east,UNDEFINED,south_west,UNDEFINED,UNDEFINED,UNDEFINED,right,542,UNDEFINED,1,south_west,UNDEFINED,UNDEFINED,56
SRC02TE2,TRUE,DOWN,39,1148,.,.,1,1110,849,525.3,.,.,971.95,.,left,0,UNDEFINED,left,UNDEFINED,614,north_east,UNDEFINED,south_west,UNDEFINED,UNDEFINED,UNDEFINED,left,402,UNDEFINED,1,south_east,UNDEFINED,UNDEFINED,60
SRC02TE2,TRUE,DOWN,36,913,.,.,1,878,809.4,557.4,.,.,1409.48,.,right,0,UNDEFINED,right,UNDEFINED,277,north_east,UNDEFINED,south_west,UNDEFINED,UNDEFINED,UNDEFINED,right,515,UNDEFINED,1,north_east,UNDEFINED,UNDEFINED,61
SRC02TE2,FALSE,DOWN,38,1532,832.5,699,1,1495,845.9,523.6,-94.39,3.6,277.63,.,left,0,UNDEFINED,left,UNDEFINED,736,north_east,UNDEFINED,south_west,UNDEFINED,UNDEFINED,UNDEFINED,left,650,UNDEFINED,1,south_east,UNDEFINED,UNDEFINED,64
SRC02TE2,FALSE,DOWN,29,1192,790.5,944,1,1164,837.4,528.8,-96.52,8.44,436.73,.,left,0,UNDEFINED,left,UNDEFINED,636,north_east,UNDEFINED,south_west,UNDEFINED,UNDEFINED,UNDEFINED,left,425,UNDEFINED,1,south_west,UNDEFINED,UNDEFINED,75
SRC02TE2,FALSE,.,17,1351,857.2,505.7,1,1335,848.6,504.6,-7.27,0.18,34.22,.,right,0,UNDEFINED,right,UNDEFINED,726,north_east,UNDEFINED,south_west,UNDEFINED,UNDEFINED,UNDEFINED,right,490,UNDEFINED,1,south_west,UNDEFINED,UNDEFINED,79
SRC02TE2,TRUE,DOWN,68,1120,.,.,1,1053,822,528.2,.,.,1315.18,.,left,0,UNDEFINED,left,UNDEFINED,360,north_east,UNDEFINED,south_west,UNDEFINED,UNDEFINED,UNDEFINED,left,625,UNDEFINED,1,north_east,UNDEFINED,UNDEFINED,81
SRC02TE2,TRUE,DOWN,47,951,.,.,1,905,835,531.5,.,.,1326.67,.,right,0,UNDEFINED,right,UNDEFINED,304,north_east,UNDEFINED,south_west,UNDEFINED,UNDEFINED,UNDEFINED,right,499,UNDEFINED,1,north_west,UNDEFINED,UNDEFINED,82
SRC02TE2,FALSE,RIGHT,16,1405,863.5,526.9,1,1390,823.2,528.2,1.84,0.83,64.19,NONE,right,0,UNDEFINED,right,UNDEFINED,742,north_east,UNDEFINED,south_west,UNDEFINED,UNDEFINED,UNDEFINED,right,545,UNDEFINED,1,north_west,UNDEFINED,UNDEFINED,85
SRC02TE2,FALSE,.,8,1165,859.9,494.7,1,1158,844.4,494.8,0.37,0.32,34.29,NONE,right,0,UNDEFINED,right,UNDEFINED,567,north_east,UNDEFINED,south_west,UNDEFINED,UNDEFINED,UNDEFINED,right,558,UNDEFINED,1,south_west,UNDEFINED,UNDEFINED,86
SRC02TE2,TRUE,DOWN,84,1116,.,.,1,1033,828.6,573.1,.,.,1306.98,.,left,0,UNDEFINED,left,UNDEFINED,444,north_east,UNDEFINED,south_west,UNDEFINED,UNDEFINED,UNDEFINED,left,523,UNDEFINED,1,south_west,UNDEFINED,UNDEFINED,89
SRC02TE2,FALSE,LEFT,37,718,704.7,638.2,1,682,829.1,520.3,-136.63,3.52,157.31,NONE,left,0,UNDEFINED,left,UNDEFINED,248,north_east,UNDEFINED,south_west,UNDEFINED,UNDEFINED,UNDEFINED,left,472,UNDEFINED,1,south_west,UNDEFINED,UNDEFINED,91
SRC02TE2,FALSE,RIGHT,27,858,873.4,558.1,2,832,693.1,632.9,22.45,4.01,236.26,.,left,0,UNDEFINED,left,UNDEFINED,248,north_east,UNDEFINED,south_west,UNDEFINED,UNDEFINED,UNDEFINED,left,472,UNDEFINED,1,south_west,UNDEFINED,UNDEFINED,91
SRC02TE2,TRUE,UP,144,1062,858.1,455,1,919,834.5,531.4,72.8,1.65,1358.12,.,right,0,UNDEFINED,right,UNDEFINED,414,north_east,UNDEFINED,south_west,UNDEFINED,UNDEFINED,UNDEFINED,right,514,UNDEFINED,1,north_east,UNDEFINED,UNDEFINED,92
SRC02TE2,TRUE,DOWN,52,1180,.,.,1,1129,820.4,540.4,.,.,1321.11,.,right,0,UNDEFINED,right,UNDEFINED,513,north_east,UNDEFINED,south_west,UNDEFINED,UNDEFINED,UNDEFINED,right,527,UNDEFINED,1,north_west,UNDEFINED,UNDEFINED,95
SRC02TE2,TRUE,DOWN,108,1330,776.4,1041.8,1,1223,844.3,521.5,-97.55,10.53,1257.72,.,left,0,UNDEFINED,left,UNDEFINED,611,north_east,UNDEFINED,south_west,UNDEFINED,UNDEFINED,UNDEFINED,left,586,UNDEFINED,1,north_west,UNDEFINED,UNDEFINED,96
SRC02TE2,TRUE,DOWN,50,1244,.,.,1,1195,823.2,533.9,.,.,1262.67,.,left,0,UNDEFINED,left,UNDEFINED,577,north_east,UNDEFINED,south_west,UNDEFINED,UNDEFINED,UNDEFINED,left,533,UNDEFINED,1,north_west,UNDEFINED,UNDEFINED,98
SRC02TE2,TRUE,DOWN,66,1115,.,.,1,1050,840.8,558.1,.,.,1284.5,.,right,0,UNDEFINED,right,UNDEFINED,484,north_east,UNDEFINED,south_west,UNDEFINED,UNDEFINED,UNDEFINED,right,483,UNDEFINED,1,south_east,UNDEFINED,UNDEFINED,101
SRC02TE2,TRUE,RIGHT,126,1148,879.5,526.7,1,1023,845.7,545.4,28.88,0.8,1350.02,.,left,0,UNDEFINED,left,UNDEFINED,300,north_east,UNDEFINED,south_west,UNDEFINED,UNDEFINED,UNDEFINED,left,709,UNDEFINED,1,north_east,UNDEFINED,UNDEFINED,104
SRC02TE2,FALSE,RIGHT,31,1133,1013.9,363.3,1,1103,829.5,508.9,38.27,4.84,294.98,AFTER,left,0,UNDEFINED,left,UNDEFINED,756,north_east,UNDEFINED,south_west,UNDEFINED,UNDEFINED,UNDEFINED,left,434,UNDEFINED,1,north_east,UNDEFINED,UNDEFINED,106
SRC02TE2,TRUE,DOWN,79,1338,606.1,1489.5,2,1260,1000.3,382.7,-110.28,22.54,1495.51,.,left,0,UNDEFINED,left,UNDEFINED,756,north_east,UNDEFINED,south_west,UNDEFINED,UNDEFINED,UNDEFINED,left,434,UNDEFINED,1,north_east,UNDEFINED,UNDEFINED,106
SRC02TE2,TRUE,DOWN,96,1497,.,.,1,1402,849.2,498.5,.,.,1177.36,.,left,0,UNDEFINED,left,UNDEFINED,720,north_east,UNDEFINED,south_west,UNDEFINED,UNDEFINED,UNDEFINED,left,637,UNDEFINED,1,north_east,UNDEFINED,UNDEFINED,108
SRC02TE2,FALSE,RIGHT,12,1266,874.7,517.2,1,1255,846.8,514.7,-5.11,0.58,49.42,NONE,right,0,UNDEFINED,right,UNDEFINED,400,north_east,UNDEFINED,south_west,UNDEFINED,UNDEFINED,UNDEFINED,right,774,UNDEFINED,1,north_east,UNDEFINED,UNDEFINED,111
SRC02TE2,TRUE,DOWN,75,1048,.,.,1,974,858.6,499,.,.,962.84,.,right,0,UNDEFINED,right,UNDEFINED,275,north_east,UNDEFINED,south_west,UNDEFINED,UNDEFINED,UNDEFINED,right,638,UNDEFINED,1,north_east,UNDEFINED,UNDEFINED,113
SRC02TE2,FALSE,.,26,1411,880.5,542.6,1,1386,858.2,535.2,-18.31,0.48,58.44,.,right,0,UNDEFINED,right,UNDEFINED,776,north_east,UNDEFINED,south_west,UNDEFINED,UNDEFINED,UNDEFINED,right,501,UNDEFINED,1,north_west,UNDEFINED,UNDEFINED,119
SRC04TE2,TRUE,UP,179,563,862.4,482.2,1,385,831,528.5,55.77,1.15,765.7,BEFORE,left,0,UNDEFINED,left,UNDEFINED,516,south_east,UNDEFINED,north_west,UNDEFINED,UNDEFINED,UNDEFINED,left,618,UNDEFINED,1,north_east,UNDEFINED,UNDEFINED,81
SRC04TE2,TRUE,UP,166,587,839.5,427.5,1,422,823.8,518.4,80.18,1.9,1136.32,BEFORE,left,0,UNDEFINED,left,UNDEFINED,389,south_east,UNDEFINED,north_west,UNDEFINED,UNDEFINED,UNDEFINED,right,230,UNDEFINED,0,south_west,UNDEFINED,UNDEFINED,91
SRC04TE2,TRUE,UP,175,1050,842.4,443.5,1,876,836.8,522.7,85.95,1.64,1083.15,BEFORE,left,0,UNDEFINED,left,UNDEFINED,731,south_east,UNDEFINED,north_west,UNDEFINED,UNDEFINED,UNDEFINED,right,598,UNDEFINED,0,south_east,UNDEFINED,UNDEFINED,111
SRC04TE2,FALSE,.,6,1253,838.3,521.4,2,1248,835.8,532.6,77.39,0.24,35.56,NONE,left,0,UNDEFINED,left,UNDEFINED,731,south_east,UNDEFINED,north_west,UNDEFINED,UNDEFINED,UNDEFINED,right,598,UNDEFINED,0,south_east,UNDEFINED,UNDEFINED,111
SRC04TE2,TRUE,UP,191,1015,843.4,457.7,1,825,836.7,508.2,82.43,1.05,1181.62,BEFORE,right,0,UNDEFINED,right,UNDEFINED,773,south_east,UNDEFINED,north_west,UNDEFINED,UNDEFINED,UNDEFINED,left,204,UNDEFINED,0,south_west,UNDEFINED,UNDEFINED,112
SRC04TE2,FALSE,.,7,378,848,512.8,1,372,844.4,526.4,75.14,0.29,32.04,NONE,left,0,UNDEFINED,left,UNDEFINED,510,south_east,UNDEFINED,north_west,UNDEFINED,UNDEFINED,UNDEFINED,right,204,UNDEFINED,0,north_west,UNDEFINED,UNDEFINED,116
SRC05TE1,TRUE,DOWN,35,1342,.,.,1,1308,820.5,545.2,.,.,768.95,.,right,0,UNDEFINED,right,UNDEFINED,718,north_west,UNDEFINED,north_east,UNDEFINED,UNDEFINED,UNDEFINED,right,490,UNDEFINED,1,north_west,UNDEFINED,UNDEFINED,57
SRC05TE1,TRUE,DOWN,85,1371,844.1,609.8,1,1287,829.9,559.6,-74.14,1.07,816.77,.,left,0,UNDEFINED,left,UNDEFINED,755,north_west,UNDEFINED,north_east,UNDEFINED,UNDEFINED,UNDEFINED,left,479,UNDEFINED,1,north_west,UNDEFINED,UNDEFINED,60
SRC05TE1,TRUE,DOWN,74,1404,.,.,1,1331,824.1,562.9,.,.,659.39,.,left,0,UNDEFINED,left,UNDEFINED,758,north_west,UNDEFINED,north_east,UNDEFINED,UNDEFINED,UNDEFINED,left,508,UNDEFINED,1,north_west,UNDEFINED,UNDEFINED,61
SRC05TE1,TRUE,UP,158,1121,846.9,487.3,1,964,834.1,540.5,76.42,1.12,754.32,.,right,0,UNDEFINED,right,UNDEFINED,268,north_west,UNDEFINED,north_east,UNDEFINED,UNDEFINED,UNDEFINED,right,719,UNDEFINED,1,north_east,UNDEFINED,UNDEFINED,62
SRC05TE1,TRUE,DOWN,21,1257,740.6,1066.2,1,1237,820.3,563.9,-99.16,10.18,750.25,.,left,0,UNDEFINED,left,UNDEFINED,593,north_west,UNDEFINED,north_east,UNDEFINED,UNDEFINED,UNDEFINED,left,543,UNDEFINED,1,south_east,UNDEFINED,UNDEFINED,63
SRC05TE1,TRUE,DOWN,32,1115,.,.,1,1084,826.7,562.8,.,.,723.31,.,left,0,UNDEFINED,left,UNDEFINED,535,north_west,UNDEFINED,north_east,UNDEFINED,UNDEFINED,UNDEFINED,left,434,UNDEFINED,1,north_east,UNDEFINED,UNDEFINED,64
SRC05TE1,TRUE,DOWN,79,1411,.,.,1,1333,821.2,536.4,.,.,695.03,.,right,0,UNDEFINED,right,UNDEFINED,772,north_west,UNDEFINED,north_east,UNDEFINED,UNDEFINED,UNDEFINED,right,514,UNDEFINED,1,south_west,UNDEFINED,UNDEFINED,66
SRC05TE1,FALSE,UP,22,1013,784.8,474.7,1,992,831.7,538.7,126.29,1.63,100.1,NONE,right,0,UNDEFINED,right,UNDEFINED,550,north_west,UNDEFINED,north_east,UNDEFINED,UNDEFINED,UNDEFINED,right,476,UNDEFINED,1,north_west,UNDEFINED,UNDEFINED,67
SRC05TE1,TRUE,DOWN,33,978,.,.,1,946,825.8,540.7,.,.,681.67,.,right,0,UNDEFINED,right,UNDEFINED,330,north_west,UNDEFINED,north_east,UNDEFINED,UNDEFINED,UNDEFINED,right,501,UNDEFINED,1,north_west,UNDEFINED,UNDEFINED,68
SRC05TE1,TRUE,UP,173,588,854,429.7,1,416,813.3,522.4,66.25,2.09,569.2,BEFORE,left,0,UNDEFINED,left,UNDEFINED,289,north_west,UNDEFINED,north_east,UNDEFINED,UNDEFINED,UNDEFINED,right,730,UNDEFINED,0,north_west,UNDEFINED,UNDEFINED,69
SRC05TE1,TRUE,DOWN,46,1344,.,.,1,1299,814.8,526.9,.,.,438.45,.,left,0,UNDEFINED,left,UNDEFINED,524,north_west,UNDEFINED,north_east,UNDEFINED,UNDEFINED,UNDEFINED,left,685,UNDEFINED,1,south_west,UNDEFINED,UNDEFINED,72
SRC05TE1,TRUE,DOWN,47,1083,.,.,1,1037,806.8,559.4,.,.,666.42,.,right,0,UNDEFINED,right,UNDEFINED,450,north_west,UNDEFINED,north_east,UNDEFINED,UNDEFINED,UNDEFINED,right,502,UNDEFINED,1,south_west,UNDEFINED,UNDEFINED,75
SRC05TE1,TRUE,DOWN,118,1216,794.9,638.4,1,1099,802.5,560.6,-95.61,1.6,677.64,.,right,0,UNDEFINED,right,UNDEFINED,538,north_west,UNDEFINED,north_east,UNDEFINED,UNDEFINED,UNDEFINED,right,543,UNDEFINED,1,north_east,UNDEFINED,UNDEFINED,76
SRC05TE1,FALSE,.,9,386,847.8,521.4,1,378,841.8,535.3,66.61,0.31,35.96,NONE,left,0,UNDEFINED,left,UNDEFINED,520,north_west,UNDEFINED,north_east,UNDEFINED,UNDEFINED,UNDEFINED,left,586,UNDEFINED,1,north_west,UNDEFINED,UNDEFINED,77
SRC05TE1,FALSE,DOWN,17,883,778.5,973,1,867,827.4,545,-96.6,8.68,531.44,.,right,0,UNDEFINED,right,UNDEFINED,292,north_west,UNDEFINED,north_east,UNDEFINED,UNDEFINED,UNDEFINED,right,459,UNDEFINED,1,south_east,UNDEFINED,UNDEFINED,78
SRC05TE1,TRUE,DOWN,25,1307,.,.,1,1283,826.1,545.9,.,.,954.65,.,right,0,UNDEFINED,right,UNDEFINED,722,north_west,UNDEFINED,north_east,UNDEFINED,UNDEFINED,UNDEFINED,right,449,UNDEFINED,1,south_west,UNDEFINED,UNDEFINED,80
SRC05TE1,FALSE,.,8,55,820.5,522.7,1,48,834.3,528,159.03,0.3,35.84,NONE,right,0,UNDEFINED,right,UNDEFINED,507,north_west,UNDEFINED,north_east,UNDEFINED,UNDEFINED,UNDEFINED,right,422,UNDEFINED,1,south_east,UNDEFINED,UNDEFINED,81
SRC05TE1,FALSE,.,6,353,819,519.3,1,348,829.6,523.1,160.32,0.23,32.13,NONE,left,0,UNDEFINED,left,UNDEFINED,549,north_west,UNDEFINED,north_east,UNDEFINED,UNDEFINED,UNDEFINED,left,426,UNDEFINED,1,north_east,UNDEFINED,UNDEFINED,82
SRC05TE1,FALSE,RIGHT,21,964,891.1,497.8,2,944,833.1,528.1,27.53,1.35,96.56,NONE,left,0,UNDEFINED,left,UNDEFINED,549,north_west,UNDEFINED,north_east,UNDEFINED,UNDEFINED,UNDEFINED,left,426,UNDEFINED,1,north_east,UNDEFINED,UNDEFINED,82
SRC05TE1,FALSE,RIGHT,27,1112,929.5,475.5,1,1086,828.4,530.5,28.5,2.37,145.72,NONE,right,0,UNDEFINED,right,UNDEFINED,685,north_west,UNDEFINED,north_east,UNDEFINED,UNDEFINED,UNDEFINED,right,411,UNDEFINED,1,north_east,UNDEFINED,UNDEFINED,87
SRC05TE1,FALSE,.,9,201,858.9,531.5,1,193,839.2,523.8,-21.31,0.44,43.13,NONE,left,0,UNDEFINED,left,UNDEFINED,225,north_west,UNDEFINED,north_east,UNDEFINED,UNDEFINED,UNDEFINED,left,561,UNDEFINED,1,north_east,UNDEFINED,UNDEFINED,90
SRC05TE1,FALSE,DOWN,17,1378,681.6,1076.4,1,1362,809.4,558.3,-104.09,10.66,684.58,.,right,0,UNDEFINED,right,UNDEFINED,739,north_west,UNDEFINED,north_east,UNDEFINED,UNDEFINED,UNDEFINED,right,514,UNDEFINED,1,south_west,UNDEFINED,UNDEFINED,91
SRC05TE1,TRUE,DOWN,62,1140,.,.,1,1079,829.9,538,.,.,549.28,.,left,0,UNDEFINED,left,UNDEFINED,479,north_west,UNDEFINED,north_east,UNDEFINED,UNDEFINED,UNDEFINED,left,528,UNDEFINED,1,south_west,UNDEFINED,UNDEFINED,94
SRC05TE1,FALSE,LEFT,22,914,766.5,595.7,1,893,839,559,-153.25,1.67,118.53,NONE,right,0,UNDEFINED,right,UNDEFINED,491,north_west,UNDEFINED,north_east,UNDEFINED,UNDEFINED,UNDEFINED,right,412,UNDEFINED,1,south_west,UNDEFINED,UNDEFINED,95
SRC05TE1,TRUE,DOWN,34,859,.,.,1,826,852.3,508.4,.,.,1206.48,.,right,0,UNDEFINED,right,UNDEFINED,229,north_west,UNDEFINED,north_east,UNDEFINED,UNDEFINED,UNDEFINED,right,491,UNDEFINED,1,north_east,UNDEFINED,UNDEFINED,97
SRC05TE1,TRUE,UP,170,340,859.5,429,1,171,845.8,526.4,81.98,2.03,682.47,BEFORE,left,0,UNDEFINED,left,UNDEFINED,421,north_west,UNDEFINED,north_east,UNDEFINED,UNDEFINED,UNDEFINED,left,514,UNDEFINED,1,north_west,UNDEFINED,UNDEFINED,100
SRC05TE1,FALSE,RIGHT,25,1181,916.9,492.7,1,1157,836.2,535.3,27.78,1.88,138.23,NONE,left,0,UNDEFINED,left,UNDEFINED,721,north_west,UNDEFINED,north_east,UNDEFINED,UNDEFINED,UNDEFINED,left,557,UNDEFINED,1,north_east,UNDEFINED,UNDEFINED,103
SRC05TE1,FALSE,LEFT,31,1424,847.9,513.7,2,1394,900.8,495.2,-160.76,1.16,96.26,.,left,0,UNDEFINED,left,UNDEFINED,721,north_west,UNDEFINED,north_east,UNDEFINED,UNDEFINED,UNDEFINED,left,557,UNDEFINED,1,north_east,UNDEFINED,UNDEFINED,103
SRC05TE1,TRUE,UP,154,585,888.1,393.2,1,432,811.9,544.6,63.21,3.49,727.26,BEFORE,left,0,UNDEFINED,left,UNDEFINED,742,north_west,UNDEFINED,north_east,UNDEFINED,UNDEFINED,UNDEFINED,left,499,UNDEFINED,1,south_west,UNDEFINED,UNDEFINED,104
SRC05TE1,FALSE,LEFT,11,728,870,477.6,2,718,892.5,462.3,-145.87,0.56,46.63,NONE,left,0,UNDEFINED,left,UNDEFINED,742,north_west,UNDEFINED,north_east,UNDEFINED,UNDEFINED,UNDEFINED,left,499,UNDEFINED,1,south_west,UNDEFINED,UNDEFINED,104
SRC05TE1,FALSE,.,6,872,861.6,501,3,867,871.1,494.1,-144.07,0.24,32.92,NONE,left,0,UNDEFINED,left,UNDEFINED,742,north_west,UNDEFINED,north_east,UNDEFINED,UNDEFINED,UNDEFINED,left,499,UNDEFINED,1,south_west,UNDEFINED,UNDEFINED,104
SRC05TE1,FALSE,LEFT,22,914,777.2,479.5,1,893,834.4,531.9,137.57,1.6,101.38,AFTER,right,0,UNDEFINED,right,UNDEFINED,400,north_west,UNDEFINED,north_east,UNDEFINED,UNDEFINED,UNDEFINED,right,698,UNDEFINED,1,north_west,UNDEFINED,UNDEFINED,105
SRC05TE1,TRUE,.,128,1244,766.8,513.3,2,1117,762.5,505.9,-59.79,0.18,861.13,.,right,0,UNDEFINED,right,UNDEFINED,400,north_west,UNDEFINED,north_east,UNDEFINED,UNDEFINED,UNDEFINED,right,698,UNDEFINED,1,north_west,UNDEFINED,UNDEFINED,105
SRC05TE1,FALSE,LEFT,31,1189,731.8,429.8,1,1159,835.2,522.4,138.21,2.86,158.01,NONE,left,0,UNDEFINED,left,UNDEFINED,758,north_west,UNDEFINED,north_east,UNDEFINED,UNDEFINED,UNDEFINED,left,522,UNDEFINED,1,north_west,UNDEFINED,UNDEFINED,107
SRC05TE1,FALSE,RIGHT,48,1414,814.1,492.3,2,1367,734.6,445.4,-30.49,1.9,167.69,.,left,0,UNDEFINED,left,UNDEFINED,758,north_west,UNDEFINED,north_east,UNDEFINED,UNDEFINED,UNDEFINED,left,522,UNDEFINED,1,north_west,UNDEFINED,UNDEFINED,107
SRC05TE1,FALSE,DOWN,17,1286,738.1,1070.3,1,1270,818.9,551.9,-99.01,10.49,640.36,.,right,0,UNDEFINED,right,UNDEFINED,400,north_west,UNDEFINED,north_east,UNDEFINED,UNDEFINED,UNDEFINED,right,752,UNDEFINED,1,south_east,UNDEFINED,UNDEFINED,108
SRC05TE1,TRUE,DOWN,69,1341,.,.,1,1273,815.4,546.1,.,.,868.72,.,right,0,UNDEFINED,right,UNDEFINED,655,north_west,UNDEFINED,north_east,UNDEFINED,UNDEFINED,UNDEFINED,right,546,UNDEFINED,1,south_west,UNDEFINED,UNDEFINED,109
SRC05TE1,TRUE,DOWN,156,1690,902.2,670.4,1,1535,812.7,522.9,-58.65,3.54,856.24,.,right,0,UNDEFINED,right,UNDEFINED,792,north_west,UNDEFINED,north_east,UNDEFINED,UNDEFINED,UNDEFINED,right,751,UNDEFINED,1,north_east,UNDEFINED,UNDEFINED,110
SRC05TE1,TRUE,.,89,1502,800.8,566.6,1,1414,806,551.7,-109.31,0.32,742.99,.,right,0,UNDEFINED,right,UNDEFINED,793,north_west,UNDEFINED,north_east,UNDEFINED,UNDEFINED,UNDEFINED,right,574,UNDEFINED,1,south_west,UNDEFINED,UNDEFINED,114
SRC05TE1,FALSE,.,6,436,847.6,517.7,1,431,837.4,521.2,18.9,0.22,31.96,NONE,right,0,UNDEFINED,right,UNDEFINED,687,north_west,UNDEFINED,north_east,UNDEFINED,UNDEFINED,UNDEFINED,right,595,UNDEFINED,1,north_east,UNDEFINED,UNDEFINED,115
SRC05TE1,FALSE,RIGHT,23,1135,912,486,2,1113,841.9,528.8,31.35,1.69,115.1,AFTER,right,0,UNDEFINED,right,UNDEFINED,687,north_west,UNDEFINED,north_east,UNDEFINED,UNDEFINED,UNDEFINED,right,595,UNDEFINED,1,north_east,UNDEFINED,UNDEFINED,115
SRC05TE1,TRUE,DOWN,24,1416,.,.,3,1393,889.1,514,.,.,681.4,.,right,0,UNDEFINED,right,UNDEFINED,687,north_west,UNDEFINED,north_east,UNDEFINED,UNDEFINED,UNDEFINED,right,595,UNDEFINED,1,north_east,UNDEFINED,UNDEFINED,115
SRC05TE1,FALSE,.,6,377,852.9,525,1,372,846.2,532.5,48.17,0.21,31.92,NONE,left,0,UNDEFINED,left,UNDEFINED,648,north_west,UNDEFINED,north_east,UNDEFINED,UNDEFINED,UNDEFINED,left,432,UNDEFINED,1,south_east,UNDEFINED,UNDEFINED,116
SRC05TE1,FALSE,RIGHT,23,1056,915,507.2,1,1034,841.5,561.5,36.37,1.88,127.54,NONE,left,0,UNDEFINED,left,UNDEFINED,605,north_west,UNDEFINED,north_east,UNDEFINED,UNDEFINED,UNDEFINED,left,464,UNDEFINED,1,north_east,UNDEFINED,UNDEFINED,117
SRC05TE1,FALSE,RIGHT,14,514,868.9,512.7,1,501,830.9,515.8,4.65,0.79,60.6,NONE,left,0,UNDEFINED,left,UNDEFINED,776,north_west,UNDEFINED,north_east,UNDEFINED,UNDEFINED,UNDEFINED,left,532,UNDEFINED,1,north_east,UNDEFINED,UNDEFINED,119
SRC05TE1,FALSE,RIGHT,24,1259,940.8,455.5,2,1236,861,526.2,41.48,2.2,149.43,AFTER,left,0,UNDEFINED,left,UNDEFINED,776,north_west,UNDEFINED,north_east,UNDEFINED,UNDEFINED,UNDEFINED,left,532,UNDEFINED,1,north_east,UNDEFINED,UNDEFINED,119
SRC05TE1,TRUE,DOWN,87,1439,.,.,3,1353,923.1,439.3,.,.,903.6,.,left,0,UNDEFINED,left,UNDEFINED,776,north_west,UNDEFINED,north_east,UNDEFINED,UNDEFINED,UNDEFINED,left,532,UNDEFINED,1,north_east,UNDEFINED,UNDEFINED,119
SRC05TE2,TRUE,UP,158,1066,877.6,444.4,1,909,824.5,547.4,62.66,2.39,923.92,.,left,0,UNDEFINED,left,UNDEFINED,235,north_west,UNDEFINED,north_east,UNDEFINED,UNDEFINED,UNDEFINED,right,696,UNDEFINED,0,north_west,UNDEFINED,UNDEFINED,8
SRC05TE2,TRUE,DOWN,68,1115,.,.,1,1048,814.9,544.1,.,.,978.83,.,left,0,UNDEFINED,left,UNDEFINED,446,north_west,UNDEFINED,north_east,UNDEFINED,UNDEFINED,UNDEFINED,left,531,UNDEFINED,1,north_east,UNDEFINED,UNDEFINED,11
SRC05TE2,FALSE,UP,24,1467,872.7,471.8,1,1444,834.7,523.3,53.49,1.32,108.53,.,left,0,UNDEFINED,left,UNDEFINED,597,north_west,UNDEFINED,north_east,UNDEFINED,UNDEFINED,UNDEFINED,right,735,UNDEFINED,0,north_west,UNDEFINED,UNDEFINED,14
SRC05TE2,TRUE,DOWN,41,956,.,.,1,916,818.9,545.6,.,.,790.93,.,left,0,UNDEFINED,left,UNDEFINED,306,north_west,UNDEFINED,north_east,UNDEFINED,UNDEFINED,UNDEFINED,left,514,UNDEFINED,1,north_east,UNDEFINED,UNDEFINED,18
SRC05TE2,TRUE,DOWN,179,1379,848.3,575.6,1,1201,831.6,551.7,-54.95,0.6,841.89,.,right,0,UNDEFINED,right,UNDEFINED,539,north_west,UNDEFINED,north_east,UNDEFINED,UNDEFINED,UNDEFINED,left,704,UNDEFINED,0,north_east,UNDEFINED,UNDEFINED,19
SRC05TE2,TRUE,DOWN,208,1031,877.3,661,1,824,814.9,531.6,-64.14,2.95,881.03,.,right,0,UNDEFINED,right,UNDEFINED,243,north_west,UNDEFINED,north_east,UNDEFINED,UNDEFINED,UNDEFINED,right,655,UNDEFINED,1,south_west,UNDEFINED,UNDEFINED,26
SRC05TE2,TRUE,DOWN,145,1288,823.5,661.1,1,1144,816.8,535.8,-86.92,2.57,962.76,.,left,0,UNDEFINED,left,UNDEFINED,483,north_west,UNDEFINED,north_east,UNDEFINED,UNDEFINED,UNDEFINED,left,683,UNDEFINED,1,north_west,UNDEFINED,UNDEFINED,27
SRC05TE2,TRUE,DOWN,33,1398,.,.,1,1366,835,537.7,.,.,1014.53,.,left,0,UNDEFINED,left,UNDEFINED,785,north_west,UNDEFINED,north_east,UNDEFINED,UNDEFINED,UNDEFINED,left,473,UNDEFINED,1,north_east,UNDEFINED,UNDEFINED,28
SRC05TE2,TRUE,DOWN,165,1166,827.2,635.3,1,1002,823.5,543.4,-87.68,1.88,994.86,.,right,0,UNDEFINED,right,UNDEFINED,358,north_west,UNDEFINED,north_east,UNDEFINED,UNDEFINED,UNDEFINED,right,672,UNDEFINED,1,south_east,UNDEFINED,UNDEFINED,30
SRC05TE2,TRUE,DOWN,29,1402,.,.,1,1374,814.7,536.5,.,.,992.64,.,right,0,UNDEFINED,right,UNDEFINED,770,north_west,UNDEFINED,north_east,UNDEFINED,UNDEFINED,UNDEFINED,right,501,UNDEFINED,1,north_west,UNDEFINED,UNDEFINED,31
SRC05TE2,TRUE,DOWN,37,1047,.,.,1,1011,823.3,548.5,.,.,834.46,.,right,0,UNDEFINED,right,UNDEFINED,362,north_west,UNDEFINED,north_east,UNDEFINED,UNDEFINED,UNDEFINED,right,546,UNDEFINED,1,south_west,UNDEFINED,UNDEFINED,32
SRC05TE2,TRUE,DOWN,143,1307,835.5,599.4,1,1165,825.3,544.6,-79.4,1.14,878.67,.,right,0,UNDEFINED,right,UNDEFINED,510,north_west,UNDEFINED,north_east,UNDEFINED,UNDEFINED,UNDEFINED,right,651,UNDEFINED,1,north_east,UNDEFINED,UNDEFINED,33
SRC05TE2,TRUE,.,103,980,826.2,542.1,1,878,828.4,522.2,-96.33,0.41,683.46,.,right,0,UNDEFINED,right,UNDEFINED,402,north_west,UNDEFINED,north_east,UNDEFINED,UNDEFINED,UNDEFINED,right,445,UNDEFINED,1,north_west,UNDEFINED,UNDEFINED,36
SRC05TE2,TRUE,DOWN,74,1339,.,.,1,1266,821.7,544.3,.,.,723.17,.,left,0,UNDEFINED,left,UNDEFINED,715,north_west,UNDEFINED,north_east,UNDEFINED,UNDEFINED,UNDEFINED,left,492,UNDEFINED,1,south_east,UNDEFINED,UNDEFINED,38
SRC05TE2,TRUE,DOWN,37,1243,.,.,1,1207,827.5,551.1,.,.,832.78,.,left,0,UNDEFINED,left,UNDEFINED,574,north_west,UNDEFINED,north_east,UNDEFINED,UNDEFINED,UNDEFINED,left,533,UNDEFINED,1,north_west,UNDEFINED,UNDEFINED,39
SRC05TE2,TRUE,DOWN,189,1448,825.1,599.6,1,1260,826.8,539,-91.61,1.24,784.75,.,right,0,UNDEFINED,right,UNDEFINED,789,north_west,UNDEFINED,north_east,UNDEFINED,UNDEFINED,UNDEFINED,right,523,UNDEFINED,1,north_east,UNDEFINED,UNDEFINED,42
SRC05TE2,TRUE,DOWN,63,1244,.,.,1,1182,830.6,569.2,.,.,812.69,.,right,0,UNDEFINED,right,UNDEFINED,607,north_west,UNDEFINED,north_east,UNDEFINED,UNDEFINED,UNDEFINED,right,488,UNDEFINED,1,north_west,UNDEFINED,UNDEFINED,43
SRC05TE2,TRUE,DOWN,41,1368,.,.,1,1328,825.8,551.4,.,.,627.8,.,left,0,UNDEFINED,left,UNDEFINED,408,north_west,UNDEFINED,north_east,UNDEFINED,UNDEFINED,UNDEFINED,left,812,UNDEFINED,1,south_west,UNDEFINED,UNDEFINED,52
SRC05TE2,TRUE,DOWN,24,926,.,.,1,903,816.8,552.6,.,.,867.5,.,left,0,UNDEFINED,left,UNDEFINED,237,north_west,UNDEFINED,north_east,UNDEFINED,UNDEFINED,UNDEFINED,left,554,UNDEFINED,1,north_west,UNDEFINED,UNDEFINED,56
SRC05TE2,FALSE,LEFT,24,860,764.1,473.2,1,837,834.2,531.5,140.31,1.88,118.93,NONE,right,0,UNDEFINED,right,UNDEFINED,364,north_west,UNDEFINED,north_east,UNDEFINED,UNDEFINED,UNDEFINED,right,747,UNDEFINED,1,north_west,UNDEFINED,UNDEFINED,64
SRC05TE2,FALSE,RIGHT,23,1060,833,523.4,2,1038,765.3,476.5,-34.66,1.7,111.7,NONE,right,0,UNDEFINED,right,UNDEFINED,364,north_west,UNDEFINED,north_east,UNDEFINED,UNDEFINED,UNDEFINED,right,747,UNDEFINED,1,north_west,UNDEFINED,UNDEFINED,64
SRC05TE2,FALSE,RIGHT,27,1064,942.2,455.1,1,1038,857.1,530.1,41.33,2.34,146.99,NONE,right,0,UNDEFINED,right,UNDEFINED,604,north_west,UNDEFINED,north_east,UNDEFINED,UNDEFINED,UNDEFINED,right,559,UNDEFINED,1,north_east,UNDEFINED,UNDEFINED,80
SRC05TE2,FALSE,LEFT,17,1243,876.8,489.9,2,1227,927.2,467,-155.61,1.14,79.35,NONE,right,0,UNDEFINED,right,UNDEFINED,604,north_west,UNDEFINED,north_east,UNDEFINED,UNDEFINED,UNDEFINED,right,559,UNDEFINED,1,north_east,UNDEFINED,UNDEFINED,80
SRC05TE2,TRUE,DOWN,604,1540,790.3,755,1,937,801.4,564.5,-93.36,3.89,444.96,.,right,0,UNDEFINED,right,UNDEFINED,402,north_west,UNDEFINED,north_east,UNDEFINED,UNDEFINED,UNDEFINED,None,1002,UNDEFINED,0,south_west,UNDEFINED,UNDEFINED,84
SRC05TE2,FALSE,.,7,158,828.1,528.6,1,152,838.8,530.7,168.92,0.22,31.34,NONE,left,0,UNDEFINED,left,UNDEFINED,358,north_west,UNDEFINED,north_east,UNDEFINED,UNDEFINED,UNDEFINED,left,545,UNDEFINED,1,south_east,UNDEFINED,UNDEFINED,87
SRC05TE2,FALSE,RIGHT,22,1365,896.5,509.9,1,1344,861,534.2,34.34,0.89,85.37,NONE,right,0,UNDEFINED,right,UNDEFINED,793,north_west,UNDEFINED,north_east,UNDEFINED,UNDEFINED,UNDEFINED,right,803,UNDEFINED,1,north_east,UNDEFINED,UNDEFINED,94
SRC05TE2,FALSE,LEFT,25,968,741.6,459.4,1,944,843,520.1,149.15,2.44,169.04,NONE,right,0,UNDEFINED,right,UNDEFINED,458,north_west,UNDEFINED,north_east,UNDEFINED,UNDEFINED,UNDEFINED,right,626,UNDEFINED,1,north_west,UNDEFINED,UNDEFINED,101
SRC05TE2,FALSE,RIGHT,45,1217,836.1,491.1,2,1173,734.7,459.5,-17.28,2.19,172.32,.,right,0,UNDEFINED,right,UNDEFINED,458,north_west,UNDEFINED,north_east,UNDEFINED,UNDEFINED,UNDEFINED,right,626,UNDEFINED,1,north_west,UNDEFINED,UNDEFINED,101
SRC05TE2,FALSE,RIGHT,26,928,925.1,480.2,1,903,836.6,525.9,27.26,2.05,127.56,AFTER,right,0,UNDEFINED,right,UNDEFINED,358,north_west,UNDEFINED,north_east,UNDEFINED,UNDEFINED,UNDEFINED,right,774,UNDEFINED,1,north_east,UNDEFINED,UNDEFINED,103
SRC05TE2,TRUE,DOWN,50,1273,.,.,2,1224,905.7,488.9,.,.,985.98,.,right,0,UNDEFINED,right,UNDEFINED,358,north_west,UNDEFINED,north_east,UNDEFINED,UNDEFINED,UNDEFINED,right,774,UNDEFINED,1,north_east,UNDEFINED,UNDEFINED,103
SRC05TE2,FALSE,.,6,197,851.6,521.7,1,192,841.7,522.8,6.33,0.21,28.71,NONE,right,0,UNDEFINED,right,UNDEFINED,699,north_west,UNDEFINED,north_east,UNDEFINED,UNDEFINED,UNDEFINED,right,737,UNDEFINED,1,south_east,UNDEFINED,UNDEFINED,108
SRC05TE2,FALSE,UP,19,470,849.5,510.5,1,452,835.2,532.7,57.16,0.54,53.3,NONE,left,0,UNDEFINED,left,UNDEFINED,320,north_west,UNDEFINED,north_east,UNDEFINED,UNDEFINED,UNDEFINED,right,893,UNDEFINED,0,north_east,UNDEFINED,UNDEFINED,117
SRC05TE2,FALSE,DOWN,33,1349,612.3,1258.9,2,1317,837.5,540.8,-107.82,14.79,1019.65,.,left,0,UNDEFINED,left,UNDEFINED,320,north_west,UNDEFINED,north_east,UNDEFINED,UNDEFINED,UNDEFINED,right,893,UNDEFINED,0,north_east,UNDEFINED,UNDEFINED,117
SRC06TE1,TRUE,.,220,1516,849.5,551.3,1,1297,844.3,543,-57.83,0.2,1715.63,BEFORE,left,0,UNDEFINED,left,UNDEFINED,697,north_east,UNDEFINED,north_west,UNDEFINED,UNDEFINED,UNDEFINED,left,847,UNDEFINED,1,north_east,UNDEFINED,UNDEFINED,2
SRC06TE1,FALSE,.,20,1601,865.7,498.2,2,1582,865.8,497.6,-99.48,0.01,43.31,NONE,left,0,UNDEFINED,left,UNDEFINED,697,north_east,UNDEFINED,north_west,UNDEFINED,UNDEFINED,UNDEFINED,left,847,UNDEFINED,1,north_east,UNDEFINED,UNDEFINED,2
SRC06TE1,FALSE,UP,98,437,839.3,506.1,1,340,821.2,538.8,60.98,0.77,1118.72,NONE,right,0,UNDEFINED,right,UNDEFINED,716,north_east,UNDEFINED,north_west,UNDEFINED,UNDEFINED,UNDEFINED,right,546,UNDEFINED,1,south_east,UNDEFINED,UNDEFINED,6
SRC06TE1,FALSE,.,8,445,828.2,506.4,1,438,845.4,510.2,167.57,0.36,39.37,NONE,right,0,UNDEFINED,right,UNDEFINED,254,north_east,UNDEFINED,north_west,UNDEFINED,UNDEFINED,UNDEFINED,right,634,UNDEFINED,1,south_west,UNDEFINED,UNDEFINED,86
SRC06TE1,FALSE,.,10,1318,852.6,512.5,1,1309,861.2,527.1,120.55,0.35,35.1,NONE,right,0,UNDEFINED,right,UNDEFINED,579,north_east,UNDEFINED,north_west,UNDEFINED,UNDEFINED,UNDEFINED,left,828,UNDEFINED,0,south_east,UNDEFINED,UNDEFINED,98
SRC06TE1,FALSE,RIGHT,23,1036,862.1,512.1,1,1014,833.5,525.1,24.4,0.65,76.03,NONE,right,0,UNDEFINED,right,UNDEFINED,423,north_east,UNDEFINED,north_west,UNDEFINED,UNDEFINED,UNDEFINED,right,576,UNDEFINED,1,north_west,UNDEFINED,UNDEFINED,106
SRC06TE2,FALSE,.,7,232,871.5,515.8,1,226,858.5,520.9,21.38,0.29,32.73,NONE,right,0,UNDEFINED,right,UNDEFINED,476,north_east,UNDEFINED,north_west,UNDEFINED,UNDEFINED,UNDEFINED,right,893,UNDEFINED,1,south_east,UNDEFINED,UNDEFINED,38
SRC06TE2,FALSE,LEFT,11,281,835.4,518.1,2,271,859.8,516.1,-175.32,0.5,47.64,NONE,right,0,UNDEFINED,right,UNDEFINED,476,north_east,UNDEFINED,north_west,UNDEFINED,UNDEFINED,UNDEFINED,right,893,UNDEFINED,1,south_east,UNDEFINED,UNDEFINED,38
SRC06TE2,FALSE,.,10,413,861.3,519.6,3,404,837.4,521.2,3.82,0.49,46.91,NONE,right,0,UNDEFINED,right,UNDEFINED,476,north_east,UNDEFINED,north_west,UNDEFINED,UNDEFINED,UNDEFINED,right,893,UNDEFINED,1,south_east,UNDEFINED,UNDEFINED,38
SRC06TE2,FALSE,.,9,1391,845.3,531.1,1,1383,863.2,535.3,166.82,0.38,38.6,NONE,right,0,UNDEFINED,right,UNDEFINED,721,north_east,UNDEFINED,north_west,UNDEFINED,UNDEFINED,UNDEFINED,left,690,UNDEFINED,0,north_east,UNDEFINED,UNDEFINED,54
SRC06TE2,FALSE,RIGHT,14,260,871.4,528.8,1,247,830.9,523.3,-7.72,0.84,63.72,NONE,right,0,UNDEFINED,right,UNDEFINED,495,north_east,UNDEFINED,north_west,UNDEFINED,UNDEFINED,UNDEFINED,right,464,UNDEFINED,1,north_west,UNDEFINED,UNDEFINED,55
SRC06TE2,FALSE,.,9,359,834.4,536.1,2,351,854.8,532.6,-170.28,0.43,41.68,NONE,right,0,UNDEFINED,right,UNDEFINED,495,north_east,UNDEFINED,north_west,UNDEFINED,UNDEFINED,UNDEFINED,right,464,UNDEFINED,1,north_west,UNDEFINED,UNDEFINED,55
SRC06TE2,FALSE,.,9,1079,834.1,538.8,1,1071,857.2,532.7,-165.24,0.49,46.59,NONE,left,0,UNDEFINED,left,UNDEFINED,528,north_east,UNDEFINED,north_west,UNDEFINED,UNDEFINED,UNDEFINED,left,554,UNDEFINED,1,north_east,UNDEFINED,UNDEFINED,59
SRC06TE2,FALSE,.,6,1020,849.4,524.4,1,1015,840.3,527.8,20.45,0.2,31.79,NONE,left,0,UNDEFINED,left,UNDEFINED,429,north_east,UNDEFINED,north_west,UNDEFINED,UNDEFINED,UNDEFINED,left,600,UNDEFINED,1,south_west,UNDEFINED,UNDEFINED,69
SRC06TE2,FALSE,.,7,71,823.1,519.8,1,65,838,522.7,169.01,0.31,38.12,NONE,left,0,UNDEFINED,left,UNDEFINED,534,north_east,UNDEFINED,north_west,UNDEFINED,UNDEFINED,UNDEFINED,left,756,UNDEFINED,1,south_west,UNDEFINED,UNDEFINED,75
SRC06TE2,FALSE,RIGHT,16,176,869.9,522.5,2,161,828.9,521.1,-1.95,0.85,62.81,NONE,left,0,UNDEFINED,left,UNDEFINED,534,north_east,UNDEFINED,north_west,UNDEFINED,UNDEFINED,UNDEFINED,left,756,UNDEFINED,1,south_west,UNDEFINED,UNDEFINED,75
SRC06TE2,FALSE,LEFT,10,247,825.3,521.2,3,238,850.1,523.9,173.8,0.51,47.02,NONE,left,0,UNDEFINED,left,UNDEFINED,534,north_east,UNDEFINED,north_west,UNDEFINED,UNDEFINED,UNDEFINED,left,756,UNDEFINED,1,south_west,UNDEFINED,UNDEFINED,75
SRC06TE2,FALSE,.,8,446,837,523.6,1,439,848.4,530.9,147.42,0.28,33.16,NONE,left,0,UNDEFINED,left,UNDEFINED,231,north_east,UNDEFINED,north_west,UNDEFINED,UNDEFINED,UNDEFINED,left,672,UNDEFINED,1,north_west,UNDEFINED,UNDEFINED,81
